#
# Results on Thu, 19 Feb 2026 12:02:18 GMT
# USER AGENT: Mozilla/5.0 (Windows NT 10.0; Win64; x64) AppleWebKit/537.36 (KHTML, like Gecko) Chrome/144.0.0.0 Safari/537.36
# Design number was non-random = 0
#
# Columns below this comment are as follows:
# 1. Results reception time.
# 2. MD5 hash of participant's IP address.
# 3. Controller name.
# 4. Order number of item.
# 5. Inner element number.
# 6. Label.
# 7. Latin Square Group.
# 8. PennElementType.
# 9. PennElementName.
# 10. Parameter.
# 11. Value.
# 12. EventTime.
# 13. Comments.
1771502538,413c6706f797644dfe55d7306751a734,PennController,0,0,welcome,NULL,PennController,0,_Trial_,Start,1771501988651,NULL
1771502538,413c6706f797644dfe55d7306751a734,PennController,0,0,welcome,NULL,PennController,0,_Header_,Start,1771501988651,NULL
1771502538,413c6706f797644dfe55d7306751a734,PennController,0,0,welcome,NULL,PennController,0,_Header_,End,1771501988905,NULL
1771502538,413c6706f797644dfe55d7306751a734,PennController,0,0,welcome,NULL,PennController,0,_Trial_,End,1771501990755,NULL
1771502538,413c6706f797644dfe55d7306751a734,PennController,39,0,consent,NULL,PennController,2,_Trial_,Start,1771501990759,NULL
1771502538,413c6706f797644dfe55d7306751a734,PennController,39,0,consent,NULL,PennController,2,_Header_,Start,1771501990759,NULL
1771502538,413c6706f797644dfe55d7306751a734,PennController,39,0,consent,NULL,PennController,2,_Header_,End,1771501991016,NULL
1771502538,413c6706f797644dfe55d7306751a734,PennController,39,0,consent,NULL,PennController,2,_Trial_,End,1771501996861,NULL
1771502538,413c6706f797644dfe55d7306751a734,PennController,41,0,instructions1,NULL,PennController,4,_Trial_,Start,1771501996863,NULL
1771502538,413c6706f797644dfe55d7306751a734,PennController,41,0,instructions1,NULL,PennController,4,_Header_,Start,1771501996863,NULL
1771502538,413c6706f797644dfe55d7306751a734,PennController,41,0,instructions1,NULL,PennController,4,_Header_,End,1771501997117,NULL
1771502538,413c6706f797644dfe55d7306751a734,PennController,41,0,instructions1,NULL,PennController,4,_Trial_,End,1771502002682,NULL
# 13. TrialType.
# 14. Number.
# 15. Valence.
# 16. Group.
# 17. Comments.
1771502538,413c6706f797644dfe55d7306751a734,PennController,4,0,practice,NULL,PennController,7,_Trial_,Start,1771502002683,Practice,2,none,none,NULL
1771502538,413c6706f797644dfe55d7306751a734,PennController,4,0,practice,NULL,PennController,7,_Header_,Start,1771502002683,Practice,2,none,none,NULL
1771502538,413c6706f797644dfe55d7306751a734,PennController,4,0,practice,NULL,PennController,7,_Header_,End,1771502002933,Practice,2,none,none,NULL
1771502538,413c6706f797644dfe55d7306751a734,PennController,4,0,practice,NULL,Scale,R1A,Choice,Somewhat wrong,1771502013369,Practice,2,none,none,NULL
1771502538,413c6706f797644dfe55d7306751a734,PennController,4,0,practice,NULL,Scale,R2,Choice,Probably no correct answer,1771502017130,Practice,2,none,none,NULL
1771502538,413c6706f797644dfe55d7306751a734,PennController,4,0,practice,NULL,Scale,R3,Choice,Most of them would disagree with me,1771502024897,Practice,2,none,none,NULL
1771502538,413c6706f797644dfe55d7306751a734,PennController,4,0,practice,NULL,Scale,R4,Choice,Somewhat easy,1771502026969,Practice,2,none,none,NULL
1771502538,413c6706f797644dfe55d7306751a734,PennController,4,0,practice,NULL,PennController,7,_Trial_,End,1771502027932,Practice,2,none,none,NULL
1771502538,413c6706f797644dfe55d7306751a734,PennController,3,0,practice,NULL,PennController,6,_Trial_,Start,1771502027934,Practice,1,none,none,NULL
1771502538,413c6706f797644dfe55d7306751a734,PennController,3,0,practice,NULL,PennController,6,_Header_,Start,1771502027934,Practice,1,none,none,NULL
1771502538,413c6706f797644dfe55d7306751a734,PennController,3,0,practice,NULL,PennController,6,_Header_,End,1771502028190,Practice,1,none,none,NULL
1771502538,413c6706f797644dfe55d7306751a734,PennController,3,0,practice,NULL,Scale,R1A,Choice,Very right,1771502035681,Practice,1,none,none,NULL
1771502538,413c6706f797644dfe55d7306751a734,PennController,3,0,practice,NULL,Scale,R2,Choice,Probably there is a correct answer,1771502039291,Practice,1,none,none,NULL
1771502538,413c6706f797644dfe55d7306751a734,PennController,3,0,practice,NULL,Scale,R3,Choice,Most of them would agree with me,1771502042017,Practice,1,none,none,NULL
1771502538,413c6706f797644dfe55d7306751a734,PennController,3,0,practice,NULL,Scale,R4,Choice,Very easy,1771502043660,Practice,1,none,none,NULL
1771502538,413c6706f797644dfe55d7306751a734,PennController,3,0,practice,NULL,PennController,6,_Trial_,End,1771502044515,Practice,1,none,none,NULL
# 13. Phase.
# 14. TrialType.
# 15. Number.
# 16. Valence.
# 17. Group.
# 18. Comments.
1771502538,413c6706f797644dfe55d7306751a734,PennController,13,0,test_phase1,NULL,PennController,16,_Trial_,Start,1771502044516,1,test,8,Neg,A,NULL
1771502538,413c6706f797644dfe55d7306751a734,PennController,13,0,test_phase1,NULL,PennController,16,_Header_,Start,1771502044516,1,test,8,Neg,A,NULL
1771502538,413c6706f797644dfe55d7306751a734,PennController,13,0,test_phase1,NULL,PennController,16,_Header_,End,1771502044769,1,test,8,Neg,A,NULL
1771502538,413c6706f797644dfe55d7306751a734,PennController,13,0,test_phase1,NULL,Scale,R1A,Choice,Right,1771502053693,1,test,8,Neg,A,NULL
1771502538,413c6706f797644dfe55d7306751a734,PennController,13,0,test_phase1,NULL,Scale,R2,Choice,Probably there is a correct answer,1771502056137,1,test,8,Neg,A,NULL
1771502538,413c6706f797644dfe55d7306751a734,PennController,13,0,test_phase1,NULL,Scale,R3,Choice,Most of them would agree with me,1771502058193,1,test,8,Neg,A,NULL
1771502538,413c6706f797644dfe55d7306751a734,PennController,13,0,test_phase1,NULL,Scale,R4,Choice,Very easy,1771502059848,1,test,8,Neg,A,NULL
1771502538,413c6706f797644dfe55d7306751a734,PennController,13,0,test_phase1,NULL,PennController,16,_Trial_,End,1771502060636,1,test,8,Neg,A,NULL
1771502538,413c6706f797644dfe55d7306751a734,PennController,8,0,test_phase1,NULL,PennController,11,_Trial_,Start,1771502060639,1,test,7,Pos,A,NULL
1771502538,413c6706f797644dfe55d7306751a734,PennController,8,0,test_phase1,NULL,PennController,11,_Header_,Start,1771502060639,1,test,7,Pos,A,NULL
1771502538,413c6706f797644dfe55d7306751a734,PennController,8,0,test_phase1,NULL,PennController,11,_Header_,End,1771502060893,1,test,7,Pos,A,NULL
1771502538,413c6706f797644dfe55d7306751a734,PennController,8,0,test_phase1,NULL,Scale,R1A,Choice,Somewhat right,1771502070828,1,test,7,Pos,A,NULL
1771502538,413c6706f797644dfe55d7306751a734,PennController,8,0,test_phase1,NULL,Scale,R2,Choice,Probably there is a correct answer,1771502075696,1,test,7,Pos,A,NULL
1771502538,413c6706f797644dfe55d7306751a734,PennController,8,0,test_phase1,NULL,Scale,R3,Choice,Some of them would agree with me,1771502077401,1,test,7,Pos,A,NULL
1771502538,413c6706f797644dfe55d7306751a734,PennController,8,0,test_phase1,NULL,Scale,R4,Choice,Somewhat easy,1771502080737,1,test,7,Pos,A,NULL
1771502538,413c6706f797644dfe55d7306751a734,PennController,8,0,test_phase1,NULL,PennController,11,_Trial_,End,1771502081515,1,test,7,Pos,A,NULL
1771502538,413c6706f797644dfe55d7306751a734,PennController,10,0,test_phase1,NULL,PennController,13,_Trial_,Start,1771502081516,1,test,2,Neg,A,NULL
1771502538,413c6706f797644dfe55d7306751a734,PennController,10,0,test_phase1,NULL,PennController,13,_Header_,Start,1771502081516,1,test,2,Neg,A,NULL
1771502538,413c6706f797644dfe55d7306751a734,PennController,10,0,test_phase1,NULL,PennController,13,_Header_,End,1771502081773,1,test,2,Neg,A,NULL
1771502538,413c6706f797644dfe55d7306751a734,PennController,10,0,test_phase1,NULL,Scale,R1A,Choice,Wrong,1771502090184,1,test,2,Neg,A,NULL
1771502538,413c6706f797644dfe55d7306751a734,PennController,10,0,test_phase1,NULL,Scale,R2,Choice,Probably there is a correct answer,1771502093064,1,test,2,Neg,A,NULL
1771502538,413c6706f797644dfe55d7306751a734,PennController,10,0,test_phase1,NULL,Scale,R3,Choice,Most of them would agree with me,1771502094664,1,test,2,Neg,A,NULL
1771502538,413c6706f797644dfe55d7306751a734,PennController,10,0,test_phase1,NULL,Scale,R4,Choice,Very easy,1771502096160,1,test,2,Neg,A,NULL
1771502538,413c6706f797644dfe55d7306751a734,PennController,10,0,test_phase1,NULL,PennController,13,_Trial_,End,1771502097062,1,test,2,Neg,A,NULL
1771502538,413c6706f797644dfe55d7306751a734,PennController,6,0,test_phase1,NULL,PennController,9,_Trial_,Start,1771502097064,1,test,3,Pos,A,NULL
1771502538,413c6706f797644dfe55d7306751a734,PennController,6,0,test_phase1,NULL,PennController,9,_Header_,Start,1771502097064,1,test,3,Pos,A,NULL
1771502538,413c6706f797644dfe55d7306751a734,PennController,6,0,test_phase1,NULL,PennController,9,_Header_,End,1771502097315,1,test,3,Pos,A,NULL
1771502538,413c6706f797644dfe55d7306751a734,PennController,6,0,test_phase1,NULL,Scale,R1A,Choice,Somewhat right,1771502107905,1,test,3,Pos,A,NULL
1771502538,413c6706f797644dfe55d7306751a734,PennController,6,0,test_phase1,NULL,Scale,R2,Choice,Probably there is a correct answer,1771502109777,1,test,3,Pos,A,NULL
1771502538,413c6706f797644dfe55d7306751a734,PennController,6,0,test_phase1,NULL,Scale,R3,Choice,Most of them would agree with me,1771502110736,1,test,3,Pos,A,NULL
1771502538,413c6706f797644dfe55d7306751a734,PennController,6,0,test_phase1,NULL,Scale,R4,Choice,Very easy,1771502112033,1,test,3,Pos,A,NULL
1771502538,413c6706f797644dfe55d7306751a734,PennController,6,0,test_phase1,NULL,PennController,9,_Trial_,End,1771502112867,1,test,3,Pos,A,NULL
1771502538,413c6706f797644dfe55d7306751a734,PennController,9,0,test_phase1,NULL,PennController,12,_Trial_,Start,1771502112868,1,test,9,Pos,A,NULL
1771502538,413c6706f797644dfe55d7306751a734,PennController,9,0,test_phase1,NULL,PennController,12,_Header_,Start,1771502112868,1,test,9,Pos,A,NULL
1771502538,413c6706f797644dfe55d7306751a734,PennController,9,0,test_phase1,NULL,PennController,12,_Header_,End,1771502113120,1,test,9,Pos,A,NULL
1771502538,413c6706f797644dfe55d7306751a734,PennController,9,0,test_phase1,NULL,Scale,R1A,Choice,Wrong,1771502127304,1,test,9,Pos,A,NULL
1771502538,413c6706f797644dfe55d7306751a734,PennController,9,0,test_phase1,NULL,Scale,R2,Choice,Definitely there is a correct answer,1771502128864,1,test,9,Pos,A,NULL
1771502538,413c6706f797644dfe55d7306751a734,PennController,9,0,test_phase1,NULL,Scale,R3,Choice,Most of them would agree with me,1771502130945,1,test,9,Pos,A,NULL
1771502538,413c6706f797644dfe55d7306751a734,PennController,9,0,test_phase1,NULL,Scale,R4,Choice,Very easy,1771502132593,1,test,9,Pos,A,NULL
1771502538,413c6706f797644dfe55d7306751a734,PennController,9,0,test_phase1,NULL,PennController,12,_Trial_,End,1771502133365,1,test,9,Pos,A,NULL
1771502538,413c6706f797644dfe55d7306751a734,PennController,7,0,test_phase1,NULL,PennController,10,_Trial_,Start,1771502133366,1,test,5,Pos,A,NULL
1771502538,413c6706f797644dfe55d7306751a734,PennController,7,0,test_phase1,NULL,PennController,10,_Header_,Start,1771502133366,1,test,5,Pos,A,NULL
1771502538,413c6706f797644dfe55d7306751a734,PennController,7,0,test_phase1,NULL,PennController,10,_Header_,End,1771502133619,1,test,5,Pos,A,NULL
1771502538,413c6706f797644dfe55d7306751a734,PennController,7,0,test_phase1,NULL,Scale,R1A,Choice,Very right,1771502148896,1,test,5,Pos,A,NULL
1771502538,413c6706f797644dfe55d7306751a734,PennController,7,0,test_phase1,NULL,Scale,R2,Choice,Probably there is a correct answer,1771502150504,1,test,5,Pos,A,NULL
1771502538,413c6706f797644dfe55d7306751a734,PennController,7,0,test_phase1,NULL,Scale,R3,Choice,Almost everyone would agree with me,1771502151812,1,test,5,Pos,A,NULL
1771502538,413c6706f797644dfe55d7306751a734,PennController,7,0,test_phase1,NULL,Scale,R4,Choice,Very easy,1771502153400,1,test,5,Pos,A,NULL
1771502538,413c6706f797644dfe55d7306751a734,PennController,7,0,test_phase1,NULL,PennController,10,_Trial_,End,1771502154380,1,test,5,Pos,A,NULL
1771502538,413c6706f797644dfe55d7306751a734,PennController,14,0,test_phase1,NULL,PennController,17,_Trial_,Start,1771502154382,1,test,10,Neg,A,NULL
1771502538,413c6706f797644dfe55d7306751a734,PennController,14,0,test_phase1,NULL,PennController,17,_Header_,Start,1771502154382,1,test,10,Neg,A,NULL
1771502538,413c6706f797644dfe55d7306751a734,PennController,14,0,test_phase1,NULL,PennController,17,_Header_,End,1771502154635,1,test,10,Neg,A,NULL
1771502538,413c6706f797644dfe55d7306751a734,PennController,14,0,test_phase1,NULL,Scale,R1A,Choice,Wrong,1771502173832,1,test,10,Neg,A,NULL
1771502538,413c6706f797644dfe55d7306751a734,PennController,14,0,test_phase1,NULL,Scale,R2,Choice,Probably there is a correct answer,1771502175689,1,test,10,Neg,A,NULL
1771502538,413c6706f797644dfe55d7306751a734,PennController,14,0,test_phase1,NULL,Scale,R3,Choice,Some of them would agree with me,1771502176498,1,test,10,Neg,A,NULL
1771502538,413c6706f797644dfe55d7306751a734,PennController,14,0,test_phase1,NULL,Scale,R4,Choice,Very easy,1771502178362,1,test,10,Neg,A,NULL
1771502538,413c6706f797644dfe55d7306751a734,PennController,14,0,test_phase1,NULL,PennController,17,_Trial_,End,1771502179133,1,test,10,Neg,A,NULL
1771502538,413c6706f797644dfe55d7306751a734,PennController,11,0,test_phase1,NULL,PennController,14,_Trial_,Start,1771502179135,1,test,4,Neg,A,NULL
1771502538,413c6706f797644dfe55d7306751a734,PennController,11,0,test_phase1,NULL,PennController,14,_Header_,Start,1771502179135,1,test,4,Neg,A,NULL
1771502538,413c6706f797644dfe55d7306751a734,PennController,11,0,test_phase1,NULL,PennController,14,_Header_,End,1771502179386,1,test,4,Neg,A,NULL
1771502538,413c6706f797644dfe55d7306751a734,PennController,11,0,test_phase1,NULL,Scale,R1A,Choice,Right,1771502189712,1,test,4,Neg,A,NULL
1771502538,413c6706f797644dfe55d7306751a734,PennController,11,0,test_phase1,NULL,Scale,R2,Choice,Probably there is a correct answer,1771502191612,1,test,4,Neg,A,NULL
1771502538,413c6706f797644dfe55d7306751a734,PennController,11,0,test_phase1,NULL,Scale,R3,Choice,Almost everyone would agree with me,1771502192795,1,test,4,Neg,A,NULL
1771502538,413c6706f797644dfe55d7306751a734,PennController,11,0,test_phase1,NULL,Scale,R4,Choice,Very easy,1771502194200,1,test,4,Neg,A,NULL
1771502538,413c6706f797644dfe55d7306751a734,PennController,11,0,test_phase1,NULL,PennController,14,_Trial_,End,1771502194971,1,test,4,Neg,A,NULL
1771502538,413c6706f797644dfe55d7306751a734,PennController,12,0,test_phase1,NULL,PennController,15,_Trial_,Start,1771502194972,1,test,6,Neg,A,NULL
1771502538,413c6706f797644dfe55d7306751a734,PennController,12,0,test_phase1,NULL,PennController,15,_Header_,Start,1771502194972,1,test,6,Neg,A,NULL
1771502538,413c6706f797644dfe55d7306751a734,PennController,12,0,test_phase1,NULL,PennController,15,_Header_,End,1771502195226,1,test,6,Neg,A,NULL
1771502538,413c6706f797644dfe55d7306751a734,PennController,12,0,test_phase1,NULL,Scale,R1A,Choice,Wrong,1771502206097,1,test,6,Neg,A,NULL
1771502538,413c6706f797644dfe55d7306751a734,PennController,12,0,test_phase1,NULL,Scale,R2,Choice,Definitely there is a correct answer,1771502207952,1,test,6,Neg,A,NULL
1771502538,413c6706f797644dfe55d7306751a734,PennController,12,0,test_phase1,NULL,Scale,R3,Choice,Most of them would agree with me,1771502209396,1,test,6,Neg,A,NULL
1771502538,413c6706f797644dfe55d7306751a734,PennController,12,0,test_phase1,NULL,Scale,R4,Choice,Very easy,1771502210513,1,test,6,Neg,A,NULL
1771502538,413c6706f797644dfe55d7306751a734,PennController,12,0,test_phase1,NULL,PennController,15,_Trial_,End,1771502211252,1,test,6,Neg,A,NULL
1771502538,413c6706f797644dfe55d7306751a734,PennController,5,0,test_phase1,NULL,PennController,8,_Trial_,Start,1771502211254,1,test,1,Pos,A,NULL
1771502538,413c6706f797644dfe55d7306751a734,PennController,5,0,test_phase1,NULL,PennController,8,_Header_,Start,1771502211254,1,test,1,Pos,A,NULL
1771502538,413c6706f797644dfe55d7306751a734,PennController,5,0,test_phase1,NULL,PennController,8,_Header_,End,1771502211507,1,test,1,Pos,A,NULL
1771502538,413c6706f797644dfe55d7306751a734,PennController,5,0,test_phase1,NULL,Scale,R1A,Choice,Very right,1771502219042,1,test,1,Pos,A,NULL
1771502538,413c6706f797644dfe55d7306751a734,PennController,5,0,test_phase1,NULL,Scale,R2,Choice,Definitely there is a correct answer,1771502220704,1,test,1,Pos,A,NULL
1771502538,413c6706f797644dfe55d7306751a734,PennController,5,0,test_phase1,NULL,Scale,R3,Choice,Almost everyone would agree with me,1771502222632,1,test,1,Pos,A,NULL
1771502538,413c6706f797644dfe55d7306751a734,PennController,5,0,test_phase1,NULL,Scale,R4,Choice,Very easy,1771502223626,1,test,1,Pos,A,NULL
1771502538,413c6706f797644dfe55d7306751a734,PennController,5,0,test_phase1,NULL,PennController,8,_Trial_,End,1771502224461,1,test,1,Pos,A,NULL
1771502538,413c6706f797644dfe55d7306751a734,PennController,27,0,fillers,NULL,PennController,30,_Trial_,Start,1771502224462,1,filler,13,none,none,NULL
1771502538,413c6706f797644dfe55d7306751a734,PennController,27,0,fillers,NULL,PennController,30,_Header_,Start,1771502224462,1,filler,13,none,none,NULL
1771502538,413c6706f797644dfe55d7306751a734,PennController,27,0,fillers,NULL,PennController,30,_Header_,End,1771502224719,1,filler,13,none,none,NULL
1771502538,413c6706f797644dfe55d7306751a734,PennController,27,0,fillers,NULL,Scale,R1A,Choice,Right,1771502232177,1,filler,13,none,none,NULL
1771502538,413c6706f797644dfe55d7306751a734,PennController,27,0,fillers,NULL,Scale,R2,Choice,Definitely there is a correct answer,1771502235277,1,filler,13,none,none,NULL
1771502538,413c6706f797644dfe55d7306751a734,PennController,27,0,fillers,NULL,Scale,R3,Choice,Most of them would agree with me,1771502236489,1,filler,13,none,none,NULL
1771502538,413c6706f797644dfe55d7306751a734,PennController,27,0,fillers,NULL,Scale,R4,Choice,Very easy,1771502238112,1,filler,13,none,none,NULL
1771502538,413c6706f797644dfe55d7306751a734,PennController,27,0,fillers,NULL,PennController,30,_Trial_,End,1771502238940,1,filler,13,none,none,NULL
1771502538,413c6706f797644dfe55d7306751a734,PennController,26,0,fillers,NULL,PennController,29,_Trial_,Start,1771502238941,1,filler,12,none,none,NULL
1771502538,413c6706f797644dfe55d7306751a734,PennController,26,0,fillers,NULL,PennController,29,_Header_,Start,1771502238941,1,filler,12,none,none,NULL
1771502538,413c6706f797644dfe55d7306751a734,PennController,26,0,fillers,NULL,PennController,29,_Header_,End,1771502239193,1,filler,12,none,none,NULL
1771502538,413c6706f797644dfe55d7306751a734,PennController,26,0,fillers,NULL,Scale,R1A,Choice,Somewhat wrong,1771502249168,1,filler,12,none,none,NULL
1771502538,413c6706f797644dfe55d7306751a734,PennController,26,0,fillers,NULL,Scale,R2,Choice,Maybe there is a correct answer,1771502251552,1,filler,12,none,none,NULL
1771502538,413c6706f797644dfe55d7306751a734,PennController,26,0,fillers,NULL,Scale,R3,Choice,Some of them would agree with me,1771502254920,1,filler,12,none,none,NULL
1771502538,413c6706f797644dfe55d7306751a734,PennController,26,0,fillers,NULL,Scale,R4,Choice,Somewhat easy,1771502256276,1,filler,12,none,none,NULL
1771502538,413c6706f797644dfe55d7306751a734,PennController,26,0,fillers,NULL,PennController,29,_Trial_,End,1771502257332,1,filler,12,none,none,NULL
1771502538,413c6706f797644dfe55d7306751a734,PennController,19,0,fillers,NULL,PennController,22,_Trial_,Start,1771502257333,1,filler,5,none,none,NULL
1771502538,413c6706f797644dfe55d7306751a734,PennController,19,0,fillers,NULL,PennController,22,_Header_,Start,1771502257333,1,filler,5,none,none,NULL
1771502538,413c6706f797644dfe55d7306751a734,PennController,19,0,fillers,NULL,PennController,22,_Header_,End,1771502257587,1,filler,5,none,none,NULL
1771502538,413c6706f797644dfe55d7306751a734,PennController,19,0,fillers,NULL,Scale,R1A,Choice,Wrong,1771502261410,1,filler,5,none,none,NULL
1771502538,413c6706f797644dfe55d7306751a734,PennController,19,0,fillers,NULL,Scale,R2,Choice,Definitely there is a correct answer,1771502263089,1,filler,5,none,none,NULL
1771502538,413c6706f797644dfe55d7306751a734,PennController,19,0,fillers,NULL,Scale,R3,Choice,Almost everyone would agree with me,1771502265475,1,filler,5,none,none,NULL
1771502538,413c6706f797644dfe55d7306751a734,PennController,19,0,fillers,NULL,Scale,R4,Choice,Very easy,1771502266579,1,filler,5,none,none,NULL
1771502538,413c6706f797644dfe55d7306751a734,PennController,19,0,fillers,NULL,PennController,22,_Trial_,End,1771502267484,1,filler,5,none,none,NULL
1771502538,413c6706f797644dfe55d7306751a734,PennController,22,0,fillers,NULL,PennController,25,_Trial_,Start,1771502267485,1,filler,8,none,none,NULL
1771502538,413c6706f797644dfe55d7306751a734,PennController,22,0,fillers,NULL,PennController,25,_Header_,Start,1771502267485,1,filler,8,none,none,NULL
1771502538,413c6706f797644dfe55d7306751a734,PennController,22,0,fillers,NULL,PennController,25,_Header_,End,1771502267742,1,filler,8,none,none,NULL
1771502538,413c6706f797644dfe55d7306751a734,PennController,22,0,fillers,NULL,Scale,R1A,Choice,Somewhat wrong,1771502276760,1,filler,8,none,none,NULL
1771502538,413c6706f797644dfe55d7306751a734,PennController,22,0,fillers,NULL,Scale,R2,Choice,Probably there is a correct answer,1771502278962,1,filler,8,none,none,NULL
1771502538,413c6706f797644dfe55d7306751a734,PennController,22,0,fillers,NULL,Scale,R3,Choice,Most of them would agree with me,1771502280169,1,filler,8,none,none,NULL
1771502538,413c6706f797644dfe55d7306751a734,PennController,22,0,fillers,NULL,Scale,R4,Choice,Very easy,1771502281320,1,filler,8,none,none,NULL
1771502538,413c6706f797644dfe55d7306751a734,PennController,22,0,fillers,NULL,PennController,25,_Trial_,End,1771502282232,1,filler,8,none,none,NULL
1771502538,413c6706f797644dfe55d7306751a734,PennController,25,0,fillers,NULL,PennController,28,_Trial_,Start,1771502282233,1,filler,11,none,none,NULL
1771502538,413c6706f797644dfe55d7306751a734,PennController,25,0,fillers,NULL,PennController,28,_Header_,Start,1771502282233,1,filler,11,none,none,NULL
1771502538,413c6706f797644dfe55d7306751a734,PennController,25,0,fillers,NULL,PennController,28,_Header_,End,1771502282489,1,filler,11,none,none,NULL
1771502538,413c6706f797644dfe55d7306751a734,PennController,25,0,fillers,NULL,Scale,R1A,Choice,Wrong,1771502289913,1,filler,11,none,none,NULL
1771502538,413c6706f797644dfe55d7306751a734,PennController,25,0,fillers,NULL,Scale,R2,Choice,Definitely there is a correct answer,1771502291512,1,filler,11,none,none,NULL
1771502538,413c6706f797644dfe55d7306751a734,PennController,25,0,fillers,NULL,Scale,R3,Choice,Almost everyone would agree with me,1771502293580,1,filler,11,none,none,NULL
1771502538,413c6706f797644dfe55d7306751a734,PennController,25,0,fillers,NULL,Scale,R4,Choice,Very easy,1771502295196,1,filler,11,none,none,NULL
1771502538,413c6706f797644dfe55d7306751a734,PennController,25,0,fillers,NULL,PennController,28,_Trial_,End,1771502295924,1,filler,11,none,none,NULL
1771502538,413c6706f797644dfe55d7306751a734,PennController,20,0,fillers,NULL,PennController,23,_Trial_,Start,1771502295926,1,filler,6,none,none,NULL
1771502538,413c6706f797644dfe55d7306751a734,PennController,20,0,fillers,NULL,PennController,23,_Header_,Start,1771502295926,1,filler,6,none,none,NULL
1771502538,413c6706f797644dfe55d7306751a734,PennController,20,0,fillers,NULL,PennController,23,_Header_,End,1771502296177,1,filler,6,none,none,NULL
1771502538,413c6706f797644dfe55d7306751a734,PennController,20,0,fillers,NULL,Scale,R1A,Choice,Very right,1771502302882,1,filler,6,none,none,NULL
1771502538,413c6706f797644dfe55d7306751a734,PennController,20,0,fillers,NULL,Scale,R2,Choice,Probably there is a correct answer,1771502305536,1,filler,6,none,none,NULL
1771502538,413c6706f797644dfe55d7306751a734,PennController,20,0,fillers,NULL,Scale,R3,Choice,Most of them would agree with me,1771502307546,1,filler,6,none,none,NULL
1771502538,413c6706f797644dfe55d7306751a734,PennController,20,0,fillers,NULL,Scale,R4,Choice,Very easy,1771502308432,1,filler,6,none,none,NULL
1771502538,413c6706f797644dfe55d7306751a734,PennController,20,0,fillers,NULL,PennController,23,_Trial_,End,1771502309292,1,filler,6,none,none,NULL
1771502538,413c6706f797644dfe55d7306751a734,PennController,24,0,fillers,NULL,PennController,27,_Trial_,Start,1771502309293,1,filler,10,none,none,NULL
1771502538,413c6706f797644dfe55d7306751a734,PennController,24,0,fillers,NULL,PennController,27,_Header_,Start,1771502309293,1,filler,10,none,none,NULL
1771502538,413c6706f797644dfe55d7306751a734,PennController,24,0,fillers,NULL,PennController,27,_Header_,End,1771502309543,1,filler,10,none,none,NULL
1771502538,413c6706f797644dfe55d7306751a734,PennController,24,0,fillers,NULL,Scale,R1A,Choice,Wrong,1771502318912,1,filler,10,none,none,NULL
1771502538,413c6706f797644dfe55d7306751a734,PennController,24,0,fillers,NULL,Scale,R2,Choice,Probably there is a correct answer,1771502321000,1,filler,10,none,none,NULL
1771502538,413c6706f797644dfe55d7306751a734,PennController,24,0,fillers,NULL,Scale,R3,Choice,Almost everyone would agree with me,1771502322228,1,filler,10,none,none,NULL
1771502538,413c6706f797644dfe55d7306751a734,PennController,24,0,fillers,NULL,Scale,R4,Choice,Very easy,1771502323296,1,filler,10,none,none,NULL
1771502538,413c6706f797644dfe55d7306751a734,PennController,24,0,fillers,NULL,PennController,27,_Trial_,End,1771502324061,1,filler,10,none,none,NULL
1771502538,413c6706f797644dfe55d7306751a734,PennController,16,0,fillers,NULL,PennController,19,_Trial_,Start,1771502324062,1,filler,2,none,none,NULL
1771502538,413c6706f797644dfe55d7306751a734,PennController,16,0,fillers,NULL,PennController,19,_Header_,Start,1771502324062,1,filler,2,none,none,NULL
1771502538,413c6706f797644dfe55d7306751a734,PennController,16,0,fillers,NULL,PennController,19,_Header_,End,1771502324318,1,filler,2,none,none,NULL
1771502538,413c6706f797644dfe55d7306751a734,PennController,16,0,fillers,NULL,Scale,R1A,Choice,Somewhat wrong,1771502327904,1,filler,2,none,none,NULL
1771502538,413c6706f797644dfe55d7306751a734,PennController,16,0,fillers,NULL,Scale,R2,Choice,Probably there is a correct answer,1771502329112,1,filler,2,none,none,NULL
1771502538,413c6706f797644dfe55d7306751a734,PennController,16,0,fillers,NULL,Scale,R3,Choice,Most of them would agree with me,1771502330496,1,filler,2,none,none,NULL
1771502538,413c6706f797644dfe55d7306751a734,PennController,16,0,fillers,NULL,Scale,R4,Choice,Very easy,1771502332400,1,filler,2,none,none,NULL
1771502538,413c6706f797644dfe55d7306751a734,PennController,16,0,fillers,NULL,PennController,19,_Trial_,End,1771502333148,1,filler,2,none,none,NULL
1771502538,413c6706f797644dfe55d7306751a734,PennController,28,0,fillers,NULL,PennController,31,_Trial_,Start,1771502333150,1,filler,14,none,none,NULL
1771502538,413c6706f797644dfe55d7306751a734,PennController,28,0,fillers,NULL,PennController,31,_Header_,Start,1771502333150,1,filler,14,none,none,NULL
1771502538,413c6706f797644dfe55d7306751a734,PennController,28,0,fillers,NULL,PennController,31,_Header_,End,1771502333407,1,filler,14,none,none,NULL
1771502538,413c6706f797644dfe55d7306751a734,PennController,28,0,fillers,NULL,Scale,R1A,Choice,Very wrong,1771502338995,1,filler,14,none,none,NULL
1771502538,413c6706f797644dfe55d7306751a734,PennController,28,0,fillers,NULL,Scale,R2,Choice,Probably there is a correct answer,1771502342257,1,filler,14,none,none,NULL
1771502538,413c6706f797644dfe55d7306751a734,PennController,28,0,fillers,NULL,Scale,R3,Choice,Most of them would agree with me,1771502343097,1,filler,14,none,none,NULL
1771502538,413c6706f797644dfe55d7306751a734,PennController,28,0,fillers,NULL,Scale,R4,Choice,Very easy,1771502344400,1,filler,14,none,none,NULL
1771502538,413c6706f797644dfe55d7306751a734,PennController,28,0,fillers,NULL,PennController,31,_Trial_,End,1771502345218,1,filler,14,none,none,NULL
1771502538,413c6706f797644dfe55d7306751a734,PennController,21,0,fillers,NULL,PennController,24,_Trial_,Start,1771502345219,1,filler,7,none,none,NULL
1771502538,413c6706f797644dfe55d7306751a734,PennController,21,0,fillers,NULL,PennController,24,_Header_,Start,1771502345219,1,filler,7,none,none,NULL
1771502538,413c6706f797644dfe55d7306751a734,PennController,21,0,fillers,NULL,PennController,24,_Header_,End,1771502345472,1,filler,7,none,none,NULL
1771502538,413c6706f797644dfe55d7306751a734,PennController,21,0,fillers,NULL,Scale,R1A,Choice,Very wrong,1771502351984,1,filler,7,none,none,NULL
1771502538,413c6706f797644dfe55d7306751a734,PennController,21,0,fillers,NULL,Scale,R2,Choice,Definitely there is a correct answer,1771502353411,1,filler,7,none,none,NULL
1771502538,413c6706f797644dfe55d7306751a734,PennController,21,0,fillers,NULL,Scale,R3,Choice,Almost everyone would agree with me,1771502354394,1,filler,7,none,none,NULL
1771502538,413c6706f797644dfe55d7306751a734,PennController,21,0,fillers,NULL,Scale,R4,Choice,Very easy,1771502357104,1,filler,7,none,none,NULL
1771502538,413c6706f797644dfe55d7306751a734,PennController,21,0,fillers,NULL,PennController,24,_Trial_,End,1771502357862,1,filler,7,none,none,NULL
1771502538,413c6706f797644dfe55d7306751a734,PennController,15,0,fillers,NULL,PennController,18,_Trial_,Start,1771502357864,1,filler,1,none,none,NULL
1771502538,413c6706f797644dfe55d7306751a734,PennController,15,0,fillers,NULL,PennController,18,_Header_,Start,1771502357864,1,filler,1,none,none,NULL
1771502538,413c6706f797644dfe55d7306751a734,PennController,15,0,fillers,NULL,PennController,18,_Header_,End,1771502358121,1,filler,1,none,none,NULL
1771502538,413c6706f797644dfe55d7306751a734,PennController,15,0,fillers,NULL,Scale,R1A,Choice,Wrong,1771502361178,1,filler,1,none,none,NULL
1771502538,413c6706f797644dfe55d7306751a734,PennController,15,0,fillers,NULL,Scale,R2,Choice,Probably there is a correct answer,1771502362816,1,filler,1,none,none,NULL
1771502538,413c6706f797644dfe55d7306751a734,PennController,15,0,fillers,NULL,Scale,R3,Choice,Most of them would agree with me,1771502364280,1,filler,1,none,none,NULL
1771502538,413c6706f797644dfe55d7306751a734,PennController,15,0,fillers,NULL,Scale,R4,Choice,Very easy,1771502365530,1,filler,1,none,none,NULL
1771502538,413c6706f797644dfe55d7306751a734,PennController,15,0,fillers,NULL,PennController,18,_Trial_,End,1771502366291,1,filler,1,none,none,NULL
1771502538,413c6706f797644dfe55d7306751a734,PennController,23,0,fillers,NULL,PennController,26,_Trial_,Start,1771502366293,1,filler,9,none,none,NULL
1771502538,413c6706f797644dfe55d7306751a734,PennController,23,0,fillers,NULL,PennController,26,_Header_,Start,1771502366293,1,filler,9,none,none,NULL
1771502538,413c6706f797644dfe55d7306751a734,PennController,23,0,fillers,NULL,PennController,26,_Header_,End,1771502366546,1,filler,9,none,none,NULL
1771502538,413c6706f797644dfe55d7306751a734,PennController,23,0,fillers,NULL,Scale,R1A,Choice,Somewhat right,1771502371195,1,filler,9,none,none,NULL
1771502538,413c6706f797644dfe55d7306751a734,PennController,23,0,fillers,NULL,Scale,R2,Choice,Probably there is a correct answer,1771502372304,1,filler,9,none,none,NULL
1771502538,413c6706f797644dfe55d7306751a734,PennController,23,0,fillers,NULL,Scale,R3,Choice,Most of them would agree with me,1771502373945,1,filler,9,none,none,NULL
1771502538,413c6706f797644dfe55d7306751a734,PennController,23,0,fillers,NULL,Scale,R4,Choice,Very easy,1771502375520,1,filler,9,none,none,NULL
1771502538,413c6706f797644dfe55d7306751a734,PennController,23,0,fillers,NULL,PennController,26,_Trial_,End,1771502376277,1,filler,9,none,none,NULL
1771502538,413c6706f797644dfe55d7306751a734,PennController,17,0,fillers,NULL,PennController,20,_Trial_,Start,1771502376278,1,filler,3,none,none,NULL
1771502538,413c6706f797644dfe55d7306751a734,PennController,17,0,fillers,NULL,PennController,20,_Header_,Start,1771502376278,1,filler,3,none,none,NULL
1771502538,413c6706f797644dfe55d7306751a734,PennController,17,0,fillers,NULL,PennController,20,_Header_,End,1771502376532,1,filler,3,none,none,NULL
1771502538,413c6706f797644dfe55d7306751a734,PennController,17,0,fillers,NULL,Scale,R1A,Choice,Somewhat wrong,1771502383872,1,filler,3,none,none,NULL
1771502538,413c6706f797644dfe55d7306751a734,PennController,17,0,fillers,NULL,Scale,R2,Choice,Probably there is a correct answer,1771502385098,1,filler,3,none,none,NULL
1771502538,413c6706f797644dfe55d7306751a734,PennController,17,0,fillers,NULL,Scale,R3,Choice,Some of them would agree with me,1771502388413,1,filler,3,none,none,NULL
1771502538,413c6706f797644dfe55d7306751a734,PennController,17,0,fillers,NULL,Scale,R4,Choice,Somewhat easy,1771502389578,1,filler,3,none,none,NULL
1771502538,413c6706f797644dfe55d7306751a734,PennController,17,0,fillers,NULL,PennController,20,_Trial_,End,1771502391074,1,filler,3,none,none,NULL
1771502538,413c6706f797644dfe55d7306751a734,PennController,18,0,fillers,NULL,PennController,21,_Trial_,Start,1771502391075,1,filler,4,none,none,NULL
1771502538,413c6706f797644dfe55d7306751a734,PennController,18,0,fillers,NULL,PennController,21,_Header_,Start,1771502391075,1,filler,4,none,none,NULL
1771502538,413c6706f797644dfe55d7306751a734,PennController,18,0,fillers,NULL,PennController,21,_Header_,End,1771502391332,1,filler,4,none,none,NULL
1771502538,413c6706f797644dfe55d7306751a734,PennController,18,0,fillers,NULL,Scale,R1A,Choice,Right,1771502397833,1,filler,4,none,none,NULL
1771502538,413c6706f797644dfe55d7306751a734,PennController,18,0,fillers,NULL,Scale,R2,Choice,Probably there is a correct answer,1771502399320,1,filler,4,none,none,NULL
1771502538,413c6706f797644dfe55d7306751a734,PennController,18,0,fillers,NULL,Scale,R3,Choice,Most of them would agree with me,1771502401768,1,filler,4,none,none,NULL
1771502538,413c6706f797644dfe55d7306751a734,PennController,18,0,fillers,NULL,Scale,R4,Choice,Very easy,1771502402689,1,filler,4,none,none,NULL
1771502538,413c6706f797644dfe55d7306751a734,PennController,18,0,fillers,NULL,PennController,21,_Trial_,End,1771502403516,1,filler,4,none,none,NULL
# 13. Comments.
1771502538,413c6706f797644dfe55d7306751a734,PennController,42,0,instructions2,NULL,PennController,5,_Trial_,Start,1771502403517,NULL
1771502538,413c6706f797644dfe55d7306751a734,PennController,42,0,instructions2,NULL,PennController,5,_Header_,Start,1771502403517,NULL
1771502538,413c6706f797644dfe55d7306751a734,PennController,42,0,instructions2,NULL,PennController,5,_Header_,End,1771502403772,NULL
1771502538,413c6706f797644dfe55d7306751a734,PennController,42,0,instructions2,NULL,PennController,5,_Trial_,End,1771502407304,NULL
# 13. Phase.
# 14. TrialType.
# 15. Number.
# 16. Valence.
# 17. Group.
# 18. Comments.
1771502538,413c6706f797644dfe55d7306751a734,PennController,29,0,test_phase2,NULL,PennController,32,_Trial_,Start,1771502407306,2,test,1,Pos,A,NULL
1771502538,413c6706f797644dfe55d7306751a734,PennController,29,0,test_phase2,NULL,PennController,32,_Header_,Start,1771502407306,2,test,1,Pos,A,NULL
1771502538,413c6706f797644dfe55d7306751a734,PennController,29,0,test_phase2,NULL,PennController,32,_Header_,End,1771502407565,2,test,1,Pos,A,NULL
1771502538,413c6706f797644dfe55d7306751a734,PennController,29,0,test_phase2,NULL,Scale,R5,Choice,The other person is clearly mistaken,1771502424568,2,test,1,Pos,A,NULL
1771502538,413c6706f797644dfe55d7306751a734,PennController,29,0,test_phase2,NULL,Scale,R6,Choice,Very uncomfortable,1771502428412,2,test,1,Pos,A,NULL
1771502538,413c6706f797644dfe55d7306751a734,PennController,29,0,test_phase2,NULL,PennController,32,_Trial_,End,1771502429265,2,test,1,Pos,A,NULL
1771502538,413c6706f797644dfe55d7306751a734,PennController,31,0,test_phase2,NULL,PennController,34,_Trial_,Start,1771502429266,2,test,5,Pos,A,NULL
1771502538,413c6706f797644dfe55d7306751a734,PennController,31,0,test_phase2,NULL,PennController,34,_Header_,Start,1771502429266,2,test,5,Pos,A,NULL
1771502538,413c6706f797644dfe55d7306751a734,PennController,31,0,test_phase2,NULL,PennController,34,_Header_,End,1771502429520,2,test,5,Pos,A,NULL
1771502538,413c6706f797644dfe55d7306751a734,PennController,31,0,test_phase2,NULL,Scale,R5,Choice,The other person is likely mistaken,1771502449273,2,test,5,Pos,A,NULL
1771502538,413c6706f797644dfe55d7306751a734,PennController,31,0,test_phase2,NULL,Scale,R6,Choice,Mildly uncomfortable,1771502451664,2,test,5,Pos,A,NULL
1771502538,413c6706f797644dfe55d7306751a734,PennController,31,0,test_phase2,NULL,PennController,34,_Trial_,End,1771502452338,2,test,5,Pos,A,NULL
1771502538,413c6706f797644dfe55d7306751a734,PennController,33,0,test_phase2,NULL,PennController,36,_Trial_,Start,1771502452339,2,test,9,Pos,A,NULL
1771502538,413c6706f797644dfe55d7306751a734,PennController,33,0,test_phase2,NULL,PennController,36,_Header_,Start,1771502452339,2,test,9,Pos,A,NULL
1771502538,413c6706f797644dfe55d7306751a734,PennController,33,0,test_phase2,NULL,PennController,36,_Header_,End,1771502452591,2,test,9,Pos,A,NULL
1771502538,413c6706f797644dfe55d7306751a734,PennController,33,0,test_phase2,NULL,Scale,R5,Choice,The other person is likely mistaken,1771502458288,2,test,9,Pos,A,NULL
1771502538,413c6706f797644dfe55d7306751a734,PennController,33,0,test_phase2,NULL,Scale,R6,Choice,Mildly uncomfortable,1771502459352,2,test,9,Pos,A,NULL
1771502538,413c6706f797644dfe55d7306751a734,PennController,33,0,test_phase2,NULL,PennController,36,_Trial_,End,1771502460075,2,test,9,Pos,A,NULL
1771502538,413c6706f797644dfe55d7306751a734,PennController,36,0,test_phase2,NULL,PennController,39,_Trial_,Start,1771502460078,2,test,6,Neg,A,NULL
1771502538,413c6706f797644dfe55d7306751a734,PennController,36,0,test_phase2,NULL,PennController,39,_Header_,Start,1771502460078,2,test,6,Neg,A,NULL
1771502538,413c6706f797644dfe55d7306751a734,PennController,36,0,test_phase2,NULL,PennController,39,_Header_,End,1771502460329,2,test,6,Neg,A,NULL
1771502538,413c6706f797644dfe55d7306751a734,PennController,36,0,test_phase2,NULL,Scale,R5,Choice,The other person is clearly mistaken,1771502463546,2,test,6,Neg,A,NULL
1771502538,413c6706f797644dfe55d7306751a734,PennController,36,0,test_phase2,NULL,Scale,R6,Choice,Extremely uncomfortable,1771502465136,2,test,6,Neg,A,NULL
1771502538,413c6706f797644dfe55d7306751a734,PennController,36,0,test_phase2,NULL,PennController,39,_Trial_,End,1771502465769,2,test,6,Neg,A,NULL
1771502538,413c6706f797644dfe55d7306751a734,PennController,32,0,test_phase2,NULL,PennController,35,_Trial_,Start,1771502465771,2,test,7,Pos,A,NULL
1771502538,413c6706f797644dfe55d7306751a734,PennController,32,0,test_phase2,NULL,PennController,35,_Header_,Start,1771502465771,2,test,7,Pos,A,NULL
1771502538,413c6706f797644dfe55d7306751a734,PennController,32,0,test_phase2,NULL,PennController,35,_Header_,End,1771502466025,2,test,7,Pos,A,NULL
1771502538,413c6706f797644dfe55d7306751a734,PennController,32,0,test_phase2,NULL,Scale,R5,Choice,The other person is likely mistaken,1771502467536,2,test,7,Pos,A,NULL
1771502538,413c6706f797644dfe55d7306751a734,PennController,32,0,test_phase2,NULL,Scale,R6,Choice,Mildly uncomfortable,1771502471048,2,test,7,Pos,A,NULL
1771502538,413c6706f797644dfe55d7306751a734,PennController,32,0,test_phase2,NULL,PennController,35,_Trial_,End,1771502471763,2,test,7,Pos,A,NULL
1771502538,413c6706f797644dfe55d7306751a734,PennController,35,0,test_phase2,NULL,PennController,38,_Trial_,Start,1771502471764,2,test,4,Neg,A,NULL
1771502538,413c6706f797644dfe55d7306751a734,PennController,35,0,test_phase2,NULL,PennController,38,_Header_,Start,1771502471764,2,test,4,Neg,A,NULL
1771502538,413c6706f797644dfe55d7306751a734,PennController,35,0,test_phase2,NULL,PennController,38,_Header_,End,1771502472015,2,test,4,Neg,A,NULL
1771502538,413c6706f797644dfe55d7306751a734,PennController,35,0,test_phase2,NULL,Scale,R5,Choice,The other person is likely mistaken,1771502473584,2,test,4,Neg,A,NULL
1771502538,413c6706f797644dfe55d7306751a734,PennController,35,0,test_phase2,NULL,Scale,R6,Choice,Extremely uncomfortable,1771502474945,2,test,4,Neg,A,NULL
1771502538,413c6706f797644dfe55d7306751a734,PennController,35,0,test_phase2,NULL,PennController,38,_Trial_,End,1771502475665,2,test,4,Neg,A,NULL
1771502538,413c6706f797644dfe55d7306751a734,PennController,38,0,test_phase2,NULL,PennController,41,_Trial_,Start,1771502475667,2,test,10,Neg,A,NULL
1771502538,413c6706f797644dfe55d7306751a734,PennController,38,0,test_phase2,NULL,PennController,41,_Header_,Start,1771502475667,2,test,10,Neg,A,NULL
1771502538,413c6706f797644dfe55d7306751a734,PennController,38,0,test_phase2,NULL,PennController,41,_Header_,End,1771502475917,2,test,10,Neg,A,NULL
1771502538,413c6706f797644dfe55d7306751a734,PennController,38,0,test_phase2,NULL,Scale,R5,Choice,The other person is likely mistaken,1771502479696,2,test,10,Neg,A,NULL
1771502538,413c6706f797644dfe55d7306751a734,PennController,38,0,test_phase2,NULL,Scale,R6,Choice,Very uncomfortable,1771502480536,2,test,10,Neg,A,NULL
1771502538,413c6706f797644dfe55d7306751a734,PennController,38,0,test_phase2,NULL,PennController,41,_Trial_,End,1771502481369,2,test,10,Neg,A,NULL
1771502538,413c6706f797644dfe55d7306751a734,PennController,34,0,test_phase2,NULL,PennController,37,_Trial_,Start,1771502481370,2,test,2,Neg,A,NULL
1771502538,413c6706f797644dfe55d7306751a734,PennController,34,0,test_phase2,NULL,PennController,37,_Header_,Start,1771502481370,2,test,2,Neg,A,NULL
1771502538,413c6706f797644dfe55d7306751a734,PennController,34,0,test_phase2,NULL,PennController,37,_Header_,End,1771502481627,2,test,2,Neg,A,NULL
1771502538,413c6706f797644dfe55d7306751a734,PennController,34,0,test_phase2,NULL,Scale,R5,Choice,The other person is likely mistaken,1771502484058,2,test,2,Neg,A,NULL
1771502538,413c6706f797644dfe55d7306751a734,PennController,34,0,test_phase2,NULL,Scale,R6,Choice,Mildly uncomfortable,1771502486731,2,test,2,Neg,A,NULL
1771502538,413c6706f797644dfe55d7306751a734,PennController,34,0,test_phase2,NULL,PennController,37,_Trial_,End,1771502487563,2,test,2,Neg,A,NULL
1771502538,413c6706f797644dfe55d7306751a734,PennController,30,0,test_phase2,NULL,PennController,33,_Trial_,Start,1771502487565,2,test,3,Pos,A,NULL
1771502538,413c6706f797644dfe55d7306751a734,PennController,30,0,test_phase2,NULL,PennController,33,_Header_,Start,1771502487565,2,test,3,Pos,A,NULL
1771502538,413c6706f797644dfe55d7306751a734,PennController,30,0,test_phase2,NULL,PennController,33,_Header_,End,1771502487817,2,test,3,Pos,A,NULL
1771502538,413c6706f797644dfe55d7306751a734,PennController,30,0,test_phase2,NULL,Scale,R5,Choice,The other person is likely mistaken,1771502490496,2,test,3,Pos,A,NULL
1771502538,413c6706f797644dfe55d7306751a734,PennController,30,0,test_phase2,NULL,Scale,R6,Choice,Very uncomfortable,1771502491568,2,test,3,Pos,A,NULL
1771502538,413c6706f797644dfe55d7306751a734,PennController,30,0,test_phase2,NULL,PennController,33,_Trial_,End,1771502493597,2,test,3,Pos,A,NULL
1771502538,413c6706f797644dfe55d7306751a734,PennController,37,0,test_phase2,NULL,PennController,40,_Trial_,Start,1771502493598,2,test,8,Neg,A,NULL
1771502538,413c6706f797644dfe55d7306751a734,PennController,37,0,test_phase2,NULL,PennController,40,_Header_,Start,1771502493598,2,test,8,Neg,A,NULL
1771502538,413c6706f797644dfe55d7306751a734,PennController,37,0,test_phase2,NULL,PennController,40,_Header_,End,1771502493853,2,test,8,Neg,A,NULL
1771502538,413c6706f797644dfe55d7306751a734,PennController,37,0,test_phase2,NULL,Scale,R5,Choice,The other person is likely mistaken,1771502496120,2,test,8,Neg,A,NULL
1771502538,413c6706f797644dfe55d7306751a734,PennController,37,0,test_phase2,NULL,Scale,R6,Choice,Mildly uncomfortable,1771502501688,2,test,8,Neg,A,NULL
1771502538,413c6706f797644dfe55d7306751a734,PennController,37,0,test_phase2,NULL,PennController,40,_Trial_,End,1771502503505,2,test,8,Neg,A,NULL
# 13. Comments.
1771502538,413c6706f797644dfe55d7306751a734,PennController,40,0,demo,NULL,PennController,3,_Trial_,Start,1771502503506,NULL
1771502538,413c6706f797644dfe55d7306751a734,PennController,40,0,demo,NULL,PennController,3,_Header_,Start,1771502503506,NULL
1771502538,413c6706f797644dfe55d7306751a734,PennController,40,0,demo,NULL,PennController,3,_Header_,End,1771502503761,NULL
1771502538,413c6706f797644dfe55d7306751a734,PennController,40,0,demo,NULL,Html,bg_form,country,England,1771502537484,text input
1771502538,413c6706f797644dfe55d7306751a734,PennController,40,0,demo,NULL,Html,bg_form,lang1,english,1771502537484,text input
1771502538,413c6706f797644dfe55d7306751a734,PennController,40,0,demo,NULL,Html,bg_form,lang2,,1771502537484,text input
1771502538,413c6706f797644dfe55d7306751a734,PennController,40,0,demo,NULL,Html,bg_form,lang3,,1771502537484,text input
1771502538,413c6706f797644dfe55d7306751a734,PennController,40,0,demo,NULL,Html,bg_form,moral_reason,unchecked,1771502537484,checkbox
1771502538,413c6706f797644dfe55d7306751a734,PennController,40,0,demo,NULL,Html,bg_form,moral_reason,checked,1771502537484,checkbox
1771502538,413c6706f797644dfe55d7306751a734,PennController,40,0,demo,NULL,Html,bg_form,moral_reason,unchecked,1771502537484,checkbox
1771502538,413c6706f797644dfe55d7306751a734,PennController,40,0,demo,NULL,Html,bg_form,moral_reason,checked,1771502537484,checkbox
1771502538,413c6706f797644dfe55d7306751a734,PennController,40,0,demo,NULL,Html,bg_form,religion,unchecked,1771502537484,checkbox
1771502538,413c6706f797644dfe55d7306751a734,PennController,40,0,demo,NULL,Html,bg_form,religion,unchecked,1771502537484,checkbox
1771502538,413c6706f797644dfe55d7306751a734,PennController,40,0,demo,NULL,Html,bg_form,religion,unchecked,1771502537484,checkbox
1771502538,413c6706f797644dfe55d7306751a734,PennController,40,0,demo,NULL,Html,bg_form,religion,unchecked,1771502537484,checkbox
1771502538,413c6706f797644dfe55d7306751a734,PennController,40,0,demo,NULL,Html,bg_form,religion,unchecked,1771502537484,checkbox
1771502538,413c6706f797644dfe55d7306751a734,PennController,40,0,demo,NULL,Html,bg_form,religion,unchecked,1771502537484,checkbox
1771502538,413c6706f797644dfe55d7306751a734,PennController,40,0,demo,NULL,Html,bg_form,religion,unchecked,1771502537484,checkbox
1771502538,413c6706f797644dfe55d7306751a734,PennController,40,0,demo,NULL,Html,bg_form,religion,unchecked,1771502537484,checkbox
1771502538,413c6706f797644dfe55d7306751a734,PennController,40,0,demo,NULL,Html,bg_form,religion,checked,1771502537484,checkbox
1771502538,413c6706f797644dfe55d7306751a734,PennController,40,0,demo,NULL,Html,bg_form,religion,unchecked,1771502537484,checkbox
1771502538,413c6706f797644dfe55d7306751a734,PennController,40,0,demo,NULL,Html,bg_form,lang4,unchecked,1771502537484,checkbox
1771502538,413c6706f797644dfe55d7306751a734,PennController,40,0,demo,NULL,Html,bg_form,rightwrong,yes,1771502537484,radio button
1771502538,413c6706f797644dfe55d7306751a734,PennController,40,0,demo,NULL,Html,bg_form,gender,man,1771502537484,radio button
1771502538,413c6706f797644dfe55d7306751a734,PennController,40,0,demo,NULL,PennController,3,_Trial_,End,1771502537484,NULL
#
# Results on Thu, 19 Feb 2026 12:04:05 GMT
# USER AGENT: Mozilla/5.0 (Windows NT 10.0; Win64; x64) AppleWebKit/537.36 (KHTML, like Gecko) Chrome/145.0.0.0 Safari/537.36
# Design number was non-random = 0
#
# Columns below this comment are as follows:
# 1. Results reception time.
# 2. MD5 hash of participant's IP address.
# 3. Controller name.
# 4. Order number of item.
# 5. Inner element number.
# 6. Label.
# 7. Latin Square Group.
# 8. PennElementType.
# 9. PennElementName.
# 10. Parameter.
# 11. Value.
# 12. EventTime.
# 13. Comments.
1771502645,2318a0d32e4a9ab22d15d4e8503487b3,PennController,0,0,welcome,NULL,PennController,0,_Trial_,Start,1771502155908,NULL
1771502645,2318a0d32e4a9ab22d15d4e8503487b3,PennController,0,0,welcome,NULL,PennController,0,_Header_,Start,1771502155908,NULL
1771502645,2318a0d32e4a9ab22d15d4e8503487b3,PennController,0,0,welcome,NULL,PennController,0,_Header_,End,1771502156160,NULL
1771502645,2318a0d32e4a9ab22d15d4e8503487b3,PennController,0,0,welcome,NULL,PennController,0,_Trial_,End,1771502158537,NULL
1771502645,2318a0d32e4a9ab22d15d4e8503487b3,PennController,39,0,consent,NULL,PennController,2,_Trial_,Start,1771502158542,NULL
1771502645,2318a0d32e4a9ab22d15d4e8503487b3,PennController,39,0,consent,NULL,PennController,2,_Header_,Start,1771502158542,NULL
1771502645,2318a0d32e4a9ab22d15d4e8503487b3,PennController,39,0,consent,NULL,PennController,2,_Header_,End,1771502158792,NULL
1771502645,2318a0d32e4a9ab22d15d4e8503487b3,PennController,39,0,consent,NULL,PennController,2,_Trial_,End,1771502162966,NULL
1771502645,2318a0d32e4a9ab22d15d4e8503487b3,PennController,41,0,instructions1,NULL,PennController,4,_Trial_,Start,1771502162968,NULL
1771502645,2318a0d32e4a9ab22d15d4e8503487b3,PennController,41,0,instructions1,NULL,PennController,4,_Header_,Start,1771502162968,NULL
1771502645,2318a0d32e4a9ab22d15d4e8503487b3,PennController,41,0,instructions1,NULL,PennController,4,_Header_,End,1771502163219,NULL
1771502645,2318a0d32e4a9ab22d15d4e8503487b3,PennController,41,0,instructions1,NULL,PennController,4,_Trial_,End,1771502165643,NULL
# 13. TrialType.
# 14. Number.
# 15. Valence.
# 16. Group.
# 17. Comments.
1771502645,2318a0d32e4a9ab22d15d4e8503487b3,PennController,4,0,practice,NULL,PennController,7,_Trial_,Start,1771502165645,Practice,2,none,none,NULL
1771502645,2318a0d32e4a9ab22d15d4e8503487b3,PennController,4,0,practice,NULL,PennController,7,_Header_,Start,1771502165645,Practice,2,none,none,NULL
1771502645,2318a0d32e4a9ab22d15d4e8503487b3,PennController,4,0,practice,NULL,PennController,7,_Header_,End,1771502165897,Practice,2,none,none,NULL
1771502645,2318a0d32e4a9ab22d15d4e8503487b3,PennController,4,0,practice,NULL,Scale,R1A,Choice,Very wrong,1771502193470,Practice,2,none,none,NULL
1771502645,2318a0d32e4a9ab22d15d4e8503487b3,PennController,4,0,practice,NULL,Scale,R2,Choice,Definitely there is a correct answer,1771502194616,Practice,2,none,none,NULL
1771502645,2318a0d32e4a9ab22d15d4e8503487b3,PennController,4,0,practice,NULL,Scale,R3,Choice,Almost everyone would agree with me,1771502195297,Practice,2,none,none,NULL
1771502645,2318a0d32e4a9ab22d15d4e8503487b3,PennController,4,0,practice,NULL,Scale,R4,Choice,Very easy,1771502196376,Practice,2,none,none,NULL
1771502645,2318a0d32e4a9ab22d15d4e8503487b3,PennController,4,0,practice,NULL,PennController,7,_Trial_,End,1771502196820,Practice,2,none,none,NULL
1771502645,2318a0d32e4a9ab22d15d4e8503487b3,PennController,3,0,practice,NULL,PennController,6,_Trial_,Start,1771502196822,Practice,1,none,none,NULL
1771502645,2318a0d32e4a9ab22d15d4e8503487b3,PennController,3,0,practice,NULL,PennController,6,_Header_,Start,1771502196822,Practice,1,none,none,NULL
1771502645,2318a0d32e4a9ab22d15d4e8503487b3,PennController,3,0,practice,NULL,PennController,6,_Header_,End,1771502197073,Practice,1,none,none,NULL
1771502645,2318a0d32e4a9ab22d15d4e8503487b3,PennController,3,0,practice,NULL,Scale,R1A,Choice,Wrong,1771502212254,Practice,1,none,none,NULL
1771502645,2318a0d32e4a9ab22d15d4e8503487b3,PennController,3,0,practice,NULL,Scale,R2,Choice,Definitely there is a correct answer,1771502213671,Practice,1,none,none,NULL
1771502645,2318a0d32e4a9ab22d15d4e8503487b3,PennController,3,0,practice,NULL,Scale,R3,Choice,Almost everyone would agree with me,1771502214362,Practice,1,none,none,NULL
1771502645,2318a0d32e4a9ab22d15d4e8503487b3,PennController,3,0,practice,NULL,Scale,R4,Choice,Very easy,1771502215876,Practice,1,none,none,NULL
1771502645,2318a0d32e4a9ab22d15d4e8503487b3,PennController,3,0,practice,NULL,PennController,6,_Trial_,End,1771502216380,Practice,1,none,none,NULL
# 13. Phase.
# 14. TrialType.
# 15. Number.
# 16. Valence.
# 17. Group.
# 18. Comments.
1771502645,2318a0d32e4a9ab22d15d4e8503487b3,PennController,14,0,test_phase1,NULL,PennController,17,_Trial_,Start,1771502216381,1,test,10,Neg,A,NULL
1771502645,2318a0d32e4a9ab22d15d4e8503487b3,PennController,14,0,test_phase1,NULL,PennController,17,_Header_,Start,1771502216381,1,test,10,Neg,A,NULL
1771502645,2318a0d32e4a9ab22d15d4e8503487b3,PennController,14,0,test_phase1,NULL,PennController,17,_Header_,End,1771502216635,1,test,10,Neg,A,NULL
1771502645,2318a0d32e4a9ab22d15d4e8503487b3,PennController,14,0,test_phase1,NULL,Scale,R1A,Choice,Somewhat wrong,1771502256157,1,test,10,Neg,A,NULL
1771502645,2318a0d32e4a9ab22d15d4e8503487b3,PennController,14,0,test_phase1,NULL,Scale,R2,Choice,Maybe there is a correct answer,1771502257432,1,test,10,Neg,A,NULL
1771502645,2318a0d32e4a9ab22d15d4e8503487b3,PennController,14,0,test_phase1,NULL,Scale,R3,Choice,Some of them would agree with me,1771502259651,1,test,10,Neg,A,NULL
1771502645,2318a0d32e4a9ab22d15d4e8503487b3,PennController,14,0,test_phase1,NULL,Scale,R4,Choice,Somewhat easy,1771502260492,1,test,10,Neg,A,NULL
1771502645,2318a0d32e4a9ab22d15d4e8503487b3,PennController,14,0,test_phase1,NULL,PennController,17,_Trial_,End,1771502261919,1,test,10,Neg,A,NULL
1771502645,2318a0d32e4a9ab22d15d4e8503487b3,PennController,12,0,test_phase1,NULL,PennController,15,_Trial_,Start,1771502261921,1,test,6,Neg,A,NULL
1771502645,2318a0d32e4a9ab22d15d4e8503487b3,PennController,12,0,test_phase1,NULL,PennController,15,_Header_,Start,1771502261921,1,test,6,Neg,A,NULL
1771502645,2318a0d32e4a9ab22d15d4e8503487b3,PennController,12,0,test_phase1,NULL,PennController,15,_Header_,End,1771502262172,1,test,6,Neg,A,NULL
1771502645,2318a0d32e4a9ab22d15d4e8503487b3,PennController,12,0,test_phase1,NULL,Scale,R1A,Choice,Somewhat wrong,1771502273830,1,test,6,Neg,A,NULL
1771502645,2318a0d32e4a9ab22d15d4e8503487b3,PennController,12,0,test_phase1,NULL,Scale,R2,Choice,Maybe there is a correct answer,1771502276071,1,test,6,Neg,A,NULL
1771502645,2318a0d32e4a9ab22d15d4e8503487b3,PennController,12,0,test_phase1,NULL,Scale,R3,Choice,Some of them would agree with me,1771502277469,1,test,6,Neg,A,NULL
1771502645,2318a0d32e4a9ab22d15d4e8503487b3,PennController,12,0,test_phase1,NULL,Scale,R4,Choice,A little easy,1771502278716,1,test,6,Neg,A,NULL
1771502645,2318a0d32e4a9ab22d15d4e8503487b3,PennController,12,0,test_phase1,NULL,PennController,15,_Trial_,End,1771502279085,1,test,6,Neg,A,NULL
1771502645,2318a0d32e4a9ab22d15d4e8503487b3,PennController,10,0,test_phase1,NULL,PennController,13,_Trial_,Start,1771502279086,1,test,2,Neg,A,NULL
1771502645,2318a0d32e4a9ab22d15d4e8503487b3,PennController,10,0,test_phase1,NULL,PennController,13,_Header_,Start,1771502279086,1,test,2,Neg,A,NULL
1771502645,2318a0d32e4a9ab22d15d4e8503487b3,PennController,10,0,test_phase1,NULL,PennController,13,_Header_,End,1771502279338,1,test,2,Neg,A,NULL
1771502645,2318a0d32e4a9ab22d15d4e8503487b3,PennController,10,0,test_phase1,NULL,Scale,R1A,Choice,Wrong,1771502284153,1,test,2,Neg,A,NULL
1771502645,2318a0d32e4a9ab22d15d4e8503487b3,PennController,10,0,test_phase1,NULL,Scale,R2,Choice,Probably there is a correct answer,1771502287645,1,test,2,Neg,A,NULL
1771502645,2318a0d32e4a9ab22d15d4e8503487b3,PennController,10,0,test_phase1,NULL,Scale,R3,Choice,Most of them would agree with me,1771502289644,1,test,2,Neg,A,NULL
1771502645,2318a0d32e4a9ab22d15d4e8503487b3,PennController,10,0,test_phase1,NULL,Scale,R4,Choice,Very easy,1771502291155,1,test,2,Neg,A,NULL
1771502645,2318a0d32e4a9ab22d15d4e8503487b3,PennController,10,0,test_phase1,NULL,PennController,13,_Trial_,End,1771502291530,1,test,2,Neg,A,NULL
1771502645,2318a0d32e4a9ab22d15d4e8503487b3,PennController,11,0,test_phase1,NULL,PennController,14,_Trial_,Start,1771502291532,1,test,4,Neg,A,NULL
1771502645,2318a0d32e4a9ab22d15d4e8503487b3,PennController,11,0,test_phase1,NULL,PennController,14,_Header_,Start,1771502291532,1,test,4,Neg,A,NULL
1771502645,2318a0d32e4a9ab22d15d4e8503487b3,PennController,11,0,test_phase1,NULL,PennController,14,_Header_,End,1771502291787,1,test,4,Neg,A,NULL
1771502645,2318a0d32e4a9ab22d15d4e8503487b3,PennController,11,0,test_phase1,NULL,Scale,R1A,Choice,Very wrong,1771502298196,1,test,4,Neg,A,NULL
1771502645,2318a0d32e4a9ab22d15d4e8503487b3,PennController,11,0,test_phase1,NULL,Scale,R2,Choice,Definitely there is a correct answer,1771502299030,1,test,4,Neg,A,NULL
1771502645,2318a0d32e4a9ab22d15d4e8503487b3,PennController,11,0,test_phase1,NULL,Scale,R3,Choice,Almost everyone would agree with me,1771502300479,1,test,4,Neg,A,NULL
1771502645,2318a0d32e4a9ab22d15d4e8503487b3,PennController,11,0,test_phase1,NULL,Scale,R4,Choice,Very easy,1771502301249,1,test,4,Neg,A,NULL
1771502645,2318a0d32e4a9ab22d15d4e8503487b3,PennController,11,0,test_phase1,NULL,PennController,14,_Trial_,End,1771502301639,1,test,4,Neg,A,NULL
1771502645,2318a0d32e4a9ab22d15d4e8503487b3,PennController,6,0,test_phase1,NULL,PennController,9,_Trial_,Start,1771502301642,1,test,3,Pos,A,NULL
1771502645,2318a0d32e4a9ab22d15d4e8503487b3,PennController,6,0,test_phase1,NULL,PennController,9,_Header_,Start,1771502301642,1,test,3,Pos,A,NULL
1771502645,2318a0d32e4a9ab22d15d4e8503487b3,PennController,6,0,test_phase1,NULL,PennController,9,_Header_,End,1771502301897,1,test,3,Pos,A,NULL
1771502645,2318a0d32e4a9ab22d15d4e8503487b3,PennController,6,0,test_phase1,NULL,Scale,R1A,Choice,Very right,1771502315109,1,test,3,Pos,A,NULL
1771502645,2318a0d32e4a9ab22d15d4e8503487b3,PennController,6,0,test_phase1,NULL,Scale,R2,Choice,Definitely there is a correct answer,1771502316230,1,test,3,Pos,A,NULL
1771502645,2318a0d32e4a9ab22d15d4e8503487b3,PennController,6,0,test_phase1,NULL,Scale,R3,Choice,Almost everyone would agree with me,1771502317166,1,test,3,Pos,A,NULL
1771502645,2318a0d32e4a9ab22d15d4e8503487b3,PennController,6,0,test_phase1,NULL,Scale,R4,Choice,Very easy,1771502318243,1,test,3,Pos,A,NULL
1771502645,2318a0d32e4a9ab22d15d4e8503487b3,PennController,6,0,test_phase1,NULL,PennController,9,_Trial_,End,1771502318761,1,test,3,Pos,A,NULL
1771502645,2318a0d32e4a9ab22d15d4e8503487b3,PennController,13,0,test_phase1,NULL,PennController,16,_Trial_,Start,1771502318763,1,test,8,Neg,A,NULL
1771502645,2318a0d32e4a9ab22d15d4e8503487b3,PennController,13,0,test_phase1,NULL,PennController,16,_Header_,Start,1771502318763,1,test,8,Neg,A,NULL
1771502645,2318a0d32e4a9ab22d15d4e8503487b3,PennController,13,0,test_phase1,NULL,PennController,16,_Header_,End,1771502319017,1,test,8,Neg,A,NULL
1771502645,2318a0d32e4a9ab22d15d4e8503487b3,PennController,13,0,test_phase1,NULL,Scale,R1A,Choice,Right,1771502326316,1,test,8,Neg,A,NULL
1771502645,2318a0d32e4a9ab22d15d4e8503487b3,PennController,13,0,test_phase1,NULL,Scale,R2,Choice,Probably there is a correct answer,1771502327621,1,test,8,Neg,A,NULL
1771502645,2318a0d32e4a9ab22d15d4e8503487b3,PennController,13,0,test_phase1,NULL,Scale,R3,Choice,Most of them would agree with me,1771502329182,1,test,8,Neg,A,NULL
1771502645,2318a0d32e4a9ab22d15d4e8503487b3,PennController,13,0,test_phase1,NULL,Scale,R4,Choice,Very easy,1771502330517,1,test,8,Neg,A,NULL
1771502645,2318a0d32e4a9ab22d15d4e8503487b3,PennController,13,0,test_phase1,NULL,PennController,16,_Trial_,End,1771502332676,1,test,8,Neg,A,NULL
1771502645,2318a0d32e4a9ab22d15d4e8503487b3,PennController,8,0,test_phase1,NULL,PennController,11,_Trial_,Start,1771502332677,1,test,7,Pos,A,NULL
1771502645,2318a0d32e4a9ab22d15d4e8503487b3,PennController,8,0,test_phase1,NULL,PennController,11,_Header_,Start,1771502332677,1,test,7,Pos,A,NULL
1771502645,2318a0d32e4a9ab22d15d4e8503487b3,PennController,8,0,test_phase1,NULL,PennController,11,_Header_,End,1771502332928,1,test,7,Pos,A,NULL
1771502645,2318a0d32e4a9ab22d15d4e8503487b3,PennController,8,0,test_phase1,NULL,Scale,R1A,Choice,Very right,1771502338350,1,test,7,Pos,A,NULL
1771502645,2318a0d32e4a9ab22d15d4e8503487b3,PennController,8,0,test_phase1,NULL,Scale,R2,Choice,Definitely there is a correct answer,1771502340245,1,test,7,Pos,A,NULL
1771502645,2318a0d32e4a9ab22d15d4e8503487b3,PennController,8,0,test_phase1,NULL,Scale,R3,Choice,Almost everyone would agree with me,1771502341006,1,test,7,Pos,A,NULL
1771502645,2318a0d32e4a9ab22d15d4e8503487b3,PennController,8,0,test_phase1,NULL,Scale,R4,Choice,Very easy,1771502341526,1,test,7,Pos,A,NULL
1771502645,2318a0d32e4a9ab22d15d4e8503487b3,PennController,8,0,test_phase1,NULL,PennController,11,_Trial_,End,1771502345387,1,test,7,Pos,A,NULL
1771502645,2318a0d32e4a9ab22d15d4e8503487b3,PennController,9,0,test_phase1,NULL,PennController,12,_Trial_,Start,1771502345387,1,test,9,Pos,A,NULL
1771502645,2318a0d32e4a9ab22d15d4e8503487b3,PennController,9,0,test_phase1,NULL,PennController,12,_Header_,Start,1771502345387,1,test,9,Pos,A,NULL
1771502645,2318a0d32e4a9ab22d15d4e8503487b3,PennController,9,0,test_phase1,NULL,PennController,12,_Header_,End,1771502345641,1,test,9,Pos,A,NULL
1771502645,2318a0d32e4a9ab22d15d4e8503487b3,PennController,9,0,test_phase1,NULL,Scale,R1A,Choice,Very right,1771502356701,1,test,9,Pos,A,NULL
1771502645,2318a0d32e4a9ab22d15d4e8503487b3,PennController,9,0,test_phase1,NULL,Scale,R2,Choice,Definitely there is a correct answer,1771502357919,1,test,9,Pos,A,NULL
1771502645,2318a0d32e4a9ab22d15d4e8503487b3,PennController,9,0,test_phase1,NULL,Scale,R3,Choice,Almost everyone would agree with me,1771502358958,1,test,9,Pos,A,NULL
1771502645,2318a0d32e4a9ab22d15d4e8503487b3,PennController,9,0,test_phase1,NULL,Scale,R4,Choice,Very easy,1771502359477,1,test,9,Pos,A,NULL
1771502645,2318a0d32e4a9ab22d15d4e8503487b3,PennController,9,0,test_phase1,NULL,PennController,12,_Trial_,End,1771502359876,1,test,9,Pos,A,NULL
1771502645,2318a0d32e4a9ab22d15d4e8503487b3,PennController,5,0,test_phase1,NULL,PennController,8,_Trial_,Start,1771502359878,1,test,1,Pos,A,NULL
1771502645,2318a0d32e4a9ab22d15d4e8503487b3,PennController,5,0,test_phase1,NULL,PennController,8,_Header_,Start,1771502359878,1,test,1,Pos,A,NULL
1771502645,2318a0d32e4a9ab22d15d4e8503487b3,PennController,5,0,test_phase1,NULL,PennController,8,_Header_,End,1771502360129,1,test,1,Pos,A,NULL
1771502645,2318a0d32e4a9ab22d15d4e8503487b3,PennController,5,0,test_phase1,NULL,Scale,R1A,Choice,Very right,1771502365899,1,test,1,Pos,A,NULL
1771502645,2318a0d32e4a9ab22d15d4e8503487b3,PennController,5,0,test_phase1,NULL,Scale,R2,Choice,Definitely there is a correct answer,1771502367228,1,test,1,Pos,A,NULL
1771502645,2318a0d32e4a9ab22d15d4e8503487b3,PennController,5,0,test_phase1,NULL,Scale,R3,Choice,Almost everyone would agree with me,1771502368482,1,test,1,Pos,A,NULL
1771502645,2318a0d32e4a9ab22d15d4e8503487b3,PennController,5,0,test_phase1,NULL,Scale,R4,Choice,Very easy,1771502368750,1,test,1,Pos,A,NULL
1771502645,2318a0d32e4a9ab22d15d4e8503487b3,PennController,5,0,test_phase1,NULL,PennController,8,_Trial_,End,1771502369373,1,test,1,Pos,A,NULL
1771502645,2318a0d32e4a9ab22d15d4e8503487b3,PennController,7,0,test_phase1,NULL,PennController,10,_Trial_,Start,1771502369373,1,test,5,Pos,A,NULL
1771502645,2318a0d32e4a9ab22d15d4e8503487b3,PennController,7,0,test_phase1,NULL,PennController,10,_Header_,Start,1771502369374,1,test,5,Pos,A,NULL
1771502645,2318a0d32e4a9ab22d15d4e8503487b3,PennController,7,0,test_phase1,NULL,PennController,10,_Header_,End,1771502369625,1,test,5,Pos,A,NULL
1771502645,2318a0d32e4a9ab22d15d4e8503487b3,PennController,7,0,test_phase1,NULL,Scale,R1A,Choice,Very right,1771502381264,1,test,5,Pos,A,NULL
1771502645,2318a0d32e4a9ab22d15d4e8503487b3,PennController,7,0,test_phase1,NULL,Scale,R2,Choice,Definitely there is a correct answer,1771502381995,1,test,5,Pos,A,NULL
1771502645,2318a0d32e4a9ab22d15d4e8503487b3,PennController,7,0,test_phase1,NULL,Scale,R3,Choice,Almost everyone would agree with me,1771502382543,1,test,5,Pos,A,NULL
1771502645,2318a0d32e4a9ab22d15d4e8503487b3,PennController,7,0,test_phase1,NULL,Scale,R4,Choice,Very easy,1771502383050,1,test,5,Pos,A,NULL
1771502645,2318a0d32e4a9ab22d15d4e8503487b3,PennController,7,0,test_phase1,NULL,PennController,10,_Trial_,End,1771502383431,1,test,5,Pos,A,NULL
1771502645,2318a0d32e4a9ab22d15d4e8503487b3,PennController,26,0,fillers,NULL,PennController,29,_Trial_,Start,1771502383433,1,filler,12,none,none,NULL
1771502645,2318a0d32e4a9ab22d15d4e8503487b3,PennController,26,0,fillers,NULL,PennController,29,_Header_,Start,1771502383433,1,filler,12,none,none,NULL
1771502645,2318a0d32e4a9ab22d15d4e8503487b3,PennController,26,0,fillers,NULL,PennController,29,_Header_,End,1771502383688,1,filler,12,none,none,NULL
1771502645,2318a0d32e4a9ab22d15d4e8503487b3,PennController,26,0,fillers,NULL,Scale,R1A,Choice,Wrong,1771502392507,1,filler,12,none,none,NULL
1771502645,2318a0d32e4a9ab22d15d4e8503487b3,PennController,26,0,fillers,NULL,Scale,R2,Choice,Maybe no correct answer,1771502395033,1,filler,12,none,none,NULL
1771502645,2318a0d32e4a9ab22d15d4e8503487b3,PennController,26,0,fillers,NULL,Scale,R3,Choice,Some of them would agree with me,1771502396575,1,filler,12,none,none,NULL
1771502645,2318a0d32e4a9ab22d15d4e8503487b3,PennController,26,0,fillers,NULL,Scale,R4,Choice,A little easy,1771502398175,1,filler,12,none,none,NULL
1771502645,2318a0d32e4a9ab22d15d4e8503487b3,PennController,26,0,fillers,NULL,PennController,29,_Trial_,End,1771502398687,1,filler,12,none,none,NULL
1771502645,2318a0d32e4a9ab22d15d4e8503487b3,PennController,20,0,fillers,NULL,PennController,23,_Trial_,Start,1771502398688,1,filler,6,none,none,NULL
1771502645,2318a0d32e4a9ab22d15d4e8503487b3,PennController,20,0,fillers,NULL,PennController,23,_Header_,Start,1771502398688,1,filler,6,none,none,NULL
1771502645,2318a0d32e4a9ab22d15d4e8503487b3,PennController,20,0,fillers,NULL,PennController,23,_Header_,End,1771502398940,1,filler,6,none,none,NULL
1771502645,2318a0d32e4a9ab22d15d4e8503487b3,PennController,20,0,fillers,NULL,Scale,R1A,Choice,Somewhat right,1771502403538,1,filler,6,none,none,NULL
1771502645,2318a0d32e4a9ab22d15d4e8503487b3,PennController,20,0,fillers,NULL,Scale,R2,Choice,Maybe there is a correct answer,1771502405347,1,filler,6,none,none,NULL
1771502645,2318a0d32e4a9ab22d15d4e8503487b3,PennController,20,0,fillers,NULL,Scale,R3,Choice,Some of them would agree with me,1771502406712,1,filler,6,none,none,NULL
1771502645,2318a0d32e4a9ab22d15d4e8503487b3,PennController,20,0,fillers,NULL,Scale,R4,Choice,Somewhat easy,1771502408454,1,filler,6,none,none,NULL
1771502645,2318a0d32e4a9ab22d15d4e8503487b3,PennController,20,0,fillers,NULL,PennController,23,_Trial_,End,1771502409524,1,filler,6,none,none,NULL
1771502645,2318a0d32e4a9ab22d15d4e8503487b3,PennController,18,0,fillers,NULL,PennController,21,_Trial_,Start,1771502409524,1,filler,4,none,none,NULL
1771502645,2318a0d32e4a9ab22d15d4e8503487b3,PennController,18,0,fillers,NULL,PennController,21,_Header_,Start,1771502409524,1,filler,4,none,none,NULL
1771502645,2318a0d32e4a9ab22d15d4e8503487b3,PennController,18,0,fillers,NULL,PennController,21,_Header_,End,1771502409778,1,filler,4,none,none,NULL
1771502645,2318a0d32e4a9ab22d15d4e8503487b3,PennController,18,0,fillers,NULL,Scale,R1A,Choice,Right,1771502415442,1,filler,4,none,none,NULL
1771502645,2318a0d32e4a9ab22d15d4e8503487b3,PennController,18,0,fillers,NULL,Scale,R2,Choice,Probably there is a correct answer,1771502416845,1,filler,4,none,none,NULL
1771502645,2318a0d32e4a9ab22d15d4e8503487b3,PennController,18,0,fillers,NULL,Scale,R3,Choice,Most of them would agree with me,1771502419341,1,filler,4,none,none,NULL
1771502645,2318a0d32e4a9ab22d15d4e8503487b3,PennController,18,0,fillers,NULL,Scale,R4,Choice,Very easy,1771502420115,1,filler,4,none,none,NULL
1771502645,2318a0d32e4a9ab22d15d4e8503487b3,PennController,18,0,fillers,NULL,PennController,21,_Trial_,End,1771502420514,1,filler,4,none,none,NULL
1771502645,2318a0d32e4a9ab22d15d4e8503487b3,PennController,27,0,fillers,NULL,PennController,30,_Trial_,Start,1771502420516,1,filler,13,none,none,NULL
1771502645,2318a0d32e4a9ab22d15d4e8503487b3,PennController,27,0,fillers,NULL,PennController,30,_Header_,Start,1771502420516,1,filler,13,none,none,NULL
1771502645,2318a0d32e4a9ab22d15d4e8503487b3,PennController,27,0,fillers,NULL,PennController,30,_Header_,End,1771502420768,1,filler,13,none,none,NULL
1771502645,2318a0d32e4a9ab22d15d4e8503487b3,PennController,27,0,fillers,NULL,Scale,R1A,Choice,Somewhat wrong,1771502427782,1,filler,13,none,none,NULL
1771502645,2318a0d32e4a9ab22d15d4e8503487b3,PennController,27,0,fillers,NULL,Scale,R2,Choice,Maybe no correct answer,1771502429224,1,filler,13,none,none,NULL
1771502645,2318a0d32e4a9ab22d15d4e8503487b3,PennController,27,0,fillers,NULL,Scale,R3,Choice,Some of them would agree with me,1771502430801,1,filler,13,none,none,NULL
1771502645,2318a0d32e4a9ab22d15d4e8503487b3,PennController,27,0,fillers,NULL,Scale,R4,Choice,A little easy,1771502431958,1,filler,13,none,none,NULL
1771502645,2318a0d32e4a9ab22d15d4e8503487b3,PennController,27,0,fillers,NULL,PennController,30,_Trial_,End,1771502432298,1,filler,13,none,none,NULL
1771502645,2318a0d32e4a9ab22d15d4e8503487b3,PennController,17,0,fillers,NULL,PennController,20,_Trial_,Start,1771502432300,1,filler,3,none,none,NULL
1771502645,2318a0d32e4a9ab22d15d4e8503487b3,PennController,17,0,fillers,NULL,PennController,20,_Header_,Start,1771502432300,1,filler,3,none,none,NULL
1771502645,2318a0d32e4a9ab22d15d4e8503487b3,PennController,17,0,fillers,NULL,PennController,20,_Header_,End,1771502432551,1,filler,3,none,none,NULL
1771502645,2318a0d32e4a9ab22d15d4e8503487b3,PennController,17,0,fillers,NULL,Scale,R1A,Choice,Somewhat wrong,1771502442042,1,filler,3,none,none,NULL
1771502645,2318a0d32e4a9ab22d15d4e8503487b3,PennController,17,0,fillers,NULL,Scale,R2,Choice,Maybe no correct answer,1771502447747,1,filler,3,none,none,NULL
1771502645,2318a0d32e4a9ab22d15d4e8503487b3,PennController,17,0,fillers,NULL,Scale,R3,Choice,Some of them would agree with me,1771502448757,1,filler,3,none,none,NULL
1771502645,2318a0d32e4a9ab22d15d4e8503487b3,PennController,17,0,fillers,NULL,Scale,R4,Choice,Somewhat easy,1771502449975,1,filler,3,none,none,NULL
1771502645,2318a0d32e4a9ab22d15d4e8503487b3,PennController,17,0,fillers,NULL,PennController,20,_Trial_,End,1771502450288,1,filler,3,none,none,NULL
1771502645,2318a0d32e4a9ab22d15d4e8503487b3,PennController,15,0,fillers,NULL,PennController,18,_Trial_,Start,1771502450290,1,filler,1,none,none,NULL
1771502645,2318a0d32e4a9ab22d15d4e8503487b3,PennController,15,0,fillers,NULL,PennController,18,_Header_,Start,1771502450290,1,filler,1,none,none,NULL
1771502645,2318a0d32e4a9ab22d15d4e8503487b3,PennController,15,0,fillers,NULL,PennController,18,_Header_,End,1771502450543,1,filler,1,none,none,NULL
1771502645,2318a0d32e4a9ab22d15d4e8503487b3,PennController,15,0,fillers,NULL,Scale,R1A,Choice,Somewhat wrong,1771502454021,1,filler,1,none,none,NULL
1771502645,2318a0d32e4a9ab22d15d4e8503487b3,PennController,15,0,fillers,NULL,Scale,R2,Choice,Maybe no correct answer,1771502455414,1,filler,1,none,none,NULL
1771502645,2318a0d32e4a9ab22d15d4e8503487b3,PennController,15,0,fillers,NULL,Scale,R3,Choice,Some of them would agree with me,1771502456565,1,filler,1,none,none,NULL
1771502645,2318a0d32e4a9ab22d15d4e8503487b3,PennController,15,0,fillers,NULL,Scale,R4,Choice,A little easy,1771502457661,1,filler,1,none,none,NULL
1771502645,2318a0d32e4a9ab22d15d4e8503487b3,PennController,15,0,fillers,NULL,PennController,18,_Trial_,End,1771502457902,1,filler,1,none,none,NULL
1771502645,2318a0d32e4a9ab22d15d4e8503487b3,PennController,19,0,fillers,NULL,PennController,22,_Trial_,Start,1771502457904,1,filler,5,none,none,NULL
1771502645,2318a0d32e4a9ab22d15d4e8503487b3,PennController,19,0,fillers,NULL,PennController,22,_Header_,Start,1771502457904,1,filler,5,none,none,NULL
1771502645,2318a0d32e4a9ab22d15d4e8503487b3,PennController,19,0,fillers,NULL,PennController,22,_Header_,End,1771502458158,1,filler,5,none,none,NULL
1771502645,2318a0d32e4a9ab22d15d4e8503487b3,PennController,19,0,fillers,NULL,Scale,R1A,Choice,Very wrong,1771502459968,1,filler,5,none,none,NULL
1771502645,2318a0d32e4a9ab22d15d4e8503487b3,PennController,19,0,fillers,NULL,Scale,R2,Choice,Definitely there is a correct answer,1771502461036,1,filler,5,none,none,NULL
1771502645,2318a0d32e4a9ab22d15d4e8503487b3,PennController,19,0,fillers,NULL,Scale,R3,Choice,Almost everyone would agree with me,1771502462203,1,filler,5,none,none,NULL
1771502645,2318a0d32e4a9ab22d15d4e8503487b3,PennController,19,0,fillers,NULL,Scale,R4,Choice,Very easy,1771502462734,1,filler,5,none,none,NULL
1771502645,2318a0d32e4a9ab22d15d4e8503487b3,PennController,19,0,fillers,NULL,PennController,22,_Trial_,End,1771502463360,1,filler,5,none,none,NULL
1771502645,2318a0d32e4a9ab22d15d4e8503487b3,PennController,24,0,fillers,NULL,PennController,27,_Trial_,Start,1771502463362,1,filler,10,none,none,NULL
1771502645,2318a0d32e4a9ab22d15d4e8503487b3,PennController,24,0,fillers,NULL,PennController,27,_Header_,Start,1771502463362,1,filler,10,none,none,NULL
1771502645,2318a0d32e4a9ab22d15d4e8503487b3,PennController,24,0,fillers,NULL,PennController,27,_Header_,End,1771502463612,1,filler,10,none,none,NULL
1771502645,2318a0d32e4a9ab22d15d4e8503487b3,PennController,24,0,fillers,NULL,Scale,R1A,Choice,Very wrong,1771502473164,1,filler,10,none,none,NULL
1771502645,2318a0d32e4a9ab22d15d4e8503487b3,PennController,24,0,fillers,NULL,Scale,R2,Choice,Definitely there is a correct answer,1771502474248,1,filler,10,none,none,NULL
1771502645,2318a0d32e4a9ab22d15d4e8503487b3,PennController,24,0,fillers,NULL,Scale,R3,Choice,Almost everyone would agree with me,1771502476843,1,filler,10,none,none,NULL
1771502645,2318a0d32e4a9ab22d15d4e8503487b3,PennController,24,0,fillers,NULL,Scale,R4,Choice,Very easy,1771502477234,1,filler,10,none,none,NULL
1771502645,2318a0d32e4a9ab22d15d4e8503487b3,PennController,24,0,fillers,NULL,PennController,27,_Trial_,End,1771502477809,1,filler,10,none,none,NULL
1771502645,2318a0d32e4a9ab22d15d4e8503487b3,PennController,16,0,fillers,NULL,PennController,19,_Trial_,Start,1771502477811,1,filler,2,none,none,NULL
1771502645,2318a0d32e4a9ab22d15d4e8503487b3,PennController,16,0,fillers,NULL,PennController,19,_Header_,Start,1771502477811,1,filler,2,none,none,NULL
1771502645,2318a0d32e4a9ab22d15d4e8503487b3,PennController,16,0,fillers,NULL,PennController,19,_Header_,End,1771502478063,1,filler,2,none,none,NULL
1771502645,2318a0d32e4a9ab22d15d4e8503487b3,PennController,16,0,fillers,NULL,Scale,R1A,Choice,Wrong,1771502480221,1,filler,2,none,none,NULL
1771502645,2318a0d32e4a9ab22d15d4e8503487b3,PennController,16,0,fillers,NULL,Scale,R2,Choice,Definitely there is a correct answer,1771502481752,1,filler,2,none,none,NULL
1771502645,2318a0d32e4a9ab22d15d4e8503487b3,PennController,16,0,fillers,NULL,Scale,R3,Choice,Most of them would agree with me,1771502483884,1,filler,2,none,none,NULL
1771502645,2318a0d32e4a9ab22d15d4e8503487b3,PennController,16,0,fillers,NULL,Scale,R4,Choice,Very easy,1771502485110,1,filler,2,none,none,NULL
1771502645,2318a0d32e4a9ab22d15d4e8503487b3,PennController,16,0,fillers,NULL,PennController,19,_Trial_,End,1771502485417,1,filler,2,none,none,NULL
1771502645,2318a0d32e4a9ab22d15d4e8503487b3,PennController,22,0,fillers,NULL,PennController,25,_Trial_,Start,1771502485418,1,filler,8,none,none,NULL
1771502645,2318a0d32e4a9ab22d15d4e8503487b3,PennController,22,0,fillers,NULL,PennController,25,_Header_,Start,1771502485418,1,filler,8,none,none,NULL
1771502645,2318a0d32e4a9ab22d15d4e8503487b3,PennController,22,0,fillers,NULL,PennController,25,_Header_,End,1771502485671,1,filler,8,none,none,NULL
1771502645,2318a0d32e4a9ab22d15d4e8503487b3,PennController,22,0,fillers,NULL,Scale,R1A,Choice,Wrong,1771502490041,1,filler,8,none,none,NULL
1771502645,2318a0d32e4a9ab22d15d4e8503487b3,PennController,22,0,fillers,NULL,Scale,R2,Choice,Probably there is a correct answer,1771502492221,1,filler,8,none,none,NULL
1771502645,2318a0d32e4a9ab22d15d4e8503487b3,PennController,22,0,fillers,NULL,Scale,R3,Choice,Almost everyone would agree with me,1771502493324,1,filler,8,none,none,NULL
1771502645,2318a0d32e4a9ab22d15d4e8503487b3,PennController,22,0,fillers,NULL,Scale,R4,Choice,Very easy,1771502494080,1,filler,8,none,none,NULL
1771502645,2318a0d32e4a9ab22d15d4e8503487b3,PennController,22,0,fillers,NULL,PennController,25,_Trial_,End,1771502494449,1,filler,8,none,none,NULL
1771502645,2318a0d32e4a9ab22d15d4e8503487b3,PennController,23,0,fillers,NULL,PennController,26,_Trial_,Start,1771502494451,1,filler,9,none,none,NULL
1771502645,2318a0d32e4a9ab22d15d4e8503487b3,PennController,23,0,fillers,NULL,PennController,26,_Header_,Start,1771502494451,1,filler,9,none,none,NULL
1771502645,2318a0d32e4a9ab22d15d4e8503487b3,PennController,23,0,fillers,NULL,PennController,26,_Header_,End,1771502494703,1,filler,9,none,none,NULL
1771502645,2318a0d32e4a9ab22d15d4e8503487b3,PennController,23,0,fillers,NULL,Scale,R1A,Choice,Somewhat right,1771502509475,1,filler,9,none,none,NULL
1771502645,2318a0d32e4a9ab22d15d4e8503487b3,PennController,23,0,fillers,NULL,Scale,R2,Choice,Maybe no correct answer,1771502514200,1,filler,9,none,none,NULL
1771502645,2318a0d32e4a9ab22d15d4e8503487b3,PennController,23,0,fillers,NULL,Scale,R3,Choice,Most of them would agree with me,1771502515257,1,filler,9,none,none,NULL
1771502645,2318a0d32e4a9ab22d15d4e8503487b3,PennController,23,0,fillers,NULL,Scale,R4,Choice,A little easy,1771502517143,1,filler,9,none,none,NULL
1771502645,2318a0d32e4a9ab22d15d4e8503487b3,PennController,23,0,fillers,NULL,PennController,26,_Trial_,End,1771502517563,1,filler,9,none,none,NULL
1771502645,2318a0d32e4a9ab22d15d4e8503487b3,PennController,25,0,fillers,NULL,PennController,28,_Trial_,Start,1771502517565,1,filler,11,none,none,NULL
1771502645,2318a0d32e4a9ab22d15d4e8503487b3,PennController,25,0,fillers,NULL,PennController,28,_Header_,Start,1771502517565,1,filler,11,none,none,NULL
1771502645,2318a0d32e4a9ab22d15d4e8503487b3,PennController,25,0,fillers,NULL,PennController,28,_Header_,End,1771502517817,1,filler,11,none,none,NULL
1771502645,2318a0d32e4a9ab22d15d4e8503487b3,PennController,25,0,fillers,NULL,Scale,R1A,Choice,Very wrong,1771502522836,1,filler,11,none,none,NULL
1771502645,2318a0d32e4a9ab22d15d4e8503487b3,PennController,25,0,fillers,NULL,Scale,R2,Choice,Definitely there is a correct answer,1771502523954,1,filler,11,none,none,NULL
1771502645,2318a0d32e4a9ab22d15d4e8503487b3,PennController,25,0,fillers,NULL,Scale,R3,Choice,Almost everyone would agree with me,1771502525241,1,filler,11,none,none,NULL
1771502645,2318a0d32e4a9ab22d15d4e8503487b3,PennController,25,0,fillers,NULL,Scale,R4,Choice,Very easy,1771502525862,1,filler,11,none,none,NULL
1771502645,2318a0d32e4a9ab22d15d4e8503487b3,PennController,25,0,fillers,NULL,PennController,28,_Trial_,End,1771502526155,1,filler,11,none,none,NULL
1771502645,2318a0d32e4a9ab22d15d4e8503487b3,PennController,21,0,fillers,NULL,PennController,24,_Trial_,Start,1771502526155,1,filler,7,none,none,NULL
1771502645,2318a0d32e4a9ab22d15d4e8503487b3,PennController,21,0,fillers,NULL,PennController,24,_Header_,Start,1771502526155,1,filler,7,none,none,NULL
1771502645,2318a0d32e4a9ab22d15d4e8503487b3,PennController,21,0,fillers,NULL,PennController,24,_Header_,End,1771502526409,1,filler,7,none,none,NULL
1771502645,2318a0d32e4a9ab22d15d4e8503487b3,PennController,21,0,fillers,NULL,Scale,R1A,Choice,Somewhat right,1771502533795,1,filler,7,none,none,NULL
1771502645,2318a0d32e4a9ab22d15d4e8503487b3,PennController,21,0,fillers,NULL,Scale,R2,Choice,Maybe there is a correct answer,1771502535637,1,filler,7,none,none,NULL
1771502645,2318a0d32e4a9ab22d15d4e8503487b3,PennController,21,0,fillers,NULL,Scale,R3,Choice,Most of them would agree with me,1771502536795,1,filler,7,none,none,NULL
1771502645,2318a0d32e4a9ab22d15d4e8503487b3,PennController,21,0,fillers,NULL,Scale,R4,Choice,Very easy,1771502537880,1,filler,7,none,none,NULL
1771502645,2318a0d32e4a9ab22d15d4e8503487b3,PennController,21,0,fillers,NULL,PennController,24,_Trial_,End,1771502538200,1,filler,7,none,none,NULL
1771502645,2318a0d32e4a9ab22d15d4e8503487b3,PennController,28,0,fillers,NULL,PennController,31,_Trial_,Start,1771502538202,1,filler,14,none,none,NULL
1771502645,2318a0d32e4a9ab22d15d4e8503487b3,PennController,28,0,fillers,NULL,PennController,31,_Header_,Start,1771502538202,1,filler,14,none,none,NULL
1771502645,2318a0d32e4a9ab22d15d4e8503487b3,PennController,28,0,fillers,NULL,PennController,31,_Header_,End,1771502538453,1,filler,14,none,none,NULL
1771502645,2318a0d32e4a9ab22d15d4e8503487b3,PennController,28,0,fillers,NULL,Scale,R1A,Choice,Very wrong,1771502544991,1,filler,14,none,none,NULL
1771502645,2318a0d32e4a9ab22d15d4e8503487b3,PennController,28,0,fillers,NULL,Scale,R2,Choice,Definitely there is a correct answer,1771502545861,1,filler,14,none,none,NULL
1771502645,2318a0d32e4a9ab22d15d4e8503487b3,PennController,28,0,fillers,NULL,Scale,R3,Choice,Almost everyone would agree with me,1771502546639,1,filler,14,none,none,NULL
1771502645,2318a0d32e4a9ab22d15d4e8503487b3,PennController,28,0,fillers,NULL,Scale,R4,Choice,Very easy,1771502547577,1,filler,14,none,none,NULL
1771502645,2318a0d32e4a9ab22d15d4e8503487b3,PennController,28,0,fillers,NULL,PennController,31,_Trial_,End,1771502547916,1,filler,14,none,none,NULL
# 13. Comments.
1771502645,2318a0d32e4a9ab22d15d4e8503487b3,PennController,42,0,instructions2,NULL,PennController,5,_Trial_,Start,1771502547917,NULL
1771502645,2318a0d32e4a9ab22d15d4e8503487b3,PennController,42,0,instructions2,NULL,PennController,5,_Header_,Start,1771502547917,NULL
1771502645,2318a0d32e4a9ab22d15d4e8503487b3,PennController,42,0,instructions2,NULL,PennController,5,_Header_,End,1771502548171,NULL
1771502645,2318a0d32e4a9ab22d15d4e8503487b3,PennController,42,0,instructions2,NULL,PennController,5,_Trial_,End,1771502550348,NULL
# 13. Phase.
# 14. TrialType.
# 15. Number.
# 16. Valence.
# 17. Group.
# 18. Comments.
1771502645,2318a0d32e4a9ab22d15d4e8503487b3,PennController,38,0,test_phase2,NULL,PennController,41,_Trial_,Start,1771502550350,2,test,10,Neg,A,NULL
1771502645,2318a0d32e4a9ab22d15d4e8503487b3,PennController,38,0,test_phase2,NULL,PennController,41,_Header_,Start,1771502550350,2,test,10,Neg,A,NULL
1771502645,2318a0d32e4a9ab22d15d4e8503487b3,PennController,38,0,test_phase2,NULL,PennController,41,_Header_,End,1771502550601,2,test,10,Neg,A,NULL
1771502645,2318a0d32e4a9ab22d15d4e8503487b3,PennController,38,0,test_phase2,NULL,Scale,R5,Choice,Neither of us needs to be mistaken,1771502557583,2,test,10,Neg,A,NULL
1771502645,2318a0d32e4a9ab22d15d4e8503487b3,PennController,38,0,test_phase2,NULL,Scale,R6,Choice,Extremely comfortable,1771502563663,2,test,10,Neg,A,NULL
1771502645,2318a0d32e4a9ab22d15d4e8503487b3,PennController,38,0,test_phase2,NULL,PennController,41,_Trial_,End,1771502564125,2,test,10,Neg,A,NULL
1771502645,2318a0d32e4a9ab22d15d4e8503487b3,PennController,31,0,test_phase2,NULL,PennController,34,_Trial_,Start,1771502564127,2,test,5,Pos,A,NULL
1771502645,2318a0d32e4a9ab22d15d4e8503487b3,PennController,31,0,test_phase2,NULL,PennController,34,_Header_,Start,1771502564127,2,test,5,Pos,A,NULL
1771502645,2318a0d32e4a9ab22d15d4e8503487b3,PennController,31,0,test_phase2,NULL,PennController,34,_Header_,End,1771502564380,2,test,5,Pos,A,NULL
1771502645,2318a0d32e4a9ab22d15d4e8503487b3,PennController,31,0,test_phase2,NULL,Scale,R5,Choice,Neither of us needs to be mistaken,1771502567530,2,test,5,Pos,A,NULL
1771502645,2318a0d32e4a9ab22d15d4e8503487b3,PennController,31,0,test_phase2,NULL,Scale,R6,Choice,Extremely comfortable,1771502569241,2,test,5,Pos,A,NULL
1771502645,2318a0d32e4a9ab22d15d4e8503487b3,PennController,31,0,test_phase2,NULL,PennController,34,_Trial_,End,1771502569636,2,test,5,Pos,A,NULL
1771502645,2318a0d32e4a9ab22d15d4e8503487b3,PennController,36,0,test_phase2,NULL,PennController,39,_Trial_,Start,1771502569638,2,test,6,Neg,A,NULL
1771502645,2318a0d32e4a9ab22d15d4e8503487b3,PennController,36,0,test_phase2,NULL,PennController,39,_Header_,Start,1771502569638,2,test,6,Neg,A,NULL
1771502645,2318a0d32e4a9ab22d15d4e8503487b3,PennController,36,0,test_phase2,NULL,PennController,39,_Header_,End,1771502569891,2,test,6,Neg,A,NULL
1771502645,2318a0d32e4a9ab22d15d4e8503487b3,PennController,36,0,test_phase2,NULL,Scale,R5,Choice,Neither of us needs to be mistaken,1771502572887,2,test,6,Neg,A,NULL
1771502645,2318a0d32e4a9ab22d15d4e8503487b3,PennController,36,0,test_phase2,NULL,Scale,R6,Choice,Extremely comfortable,1771502573715,2,test,6,Neg,A,NULL
1771502645,2318a0d32e4a9ab22d15d4e8503487b3,PennController,36,0,test_phase2,NULL,PennController,39,_Trial_,End,1771502574103,2,test,6,Neg,A,NULL
1771502645,2318a0d32e4a9ab22d15d4e8503487b3,PennController,37,0,test_phase2,NULL,PennController,40,_Trial_,Start,1771502574105,2,test,8,Neg,A,NULL
1771502645,2318a0d32e4a9ab22d15d4e8503487b3,PennController,37,0,test_phase2,NULL,PennController,40,_Header_,Start,1771502574105,2,test,8,Neg,A,NULL
1771502645,2318a0d32e4a9ab22d15d4e8503487b3,PennController,37,0,test_phase2,NULL,PennController,40,_Header_,End,1771502574357,2,test,8,Neg,A,NULL
1771502645,2318a0d32e4a9ab22d15d4e8503487b3,PennController,37,0,test_phase2,NULL,Scale,R5,Choice,Neither of us needs to be mistaken,1771502576393,2,test,8,Neg,A,NULL
1771502645,2318a0d32e4a9ab22d15d4e8503487b3,PennController,37,0,test_phase2,NULL,Scale,R6,Choice,Extremely comfortable,1771502576916,2,test,8,Neg,A,NULL
1771502645,2318a0d32e4a9ab22d15d4e8503487b3,PennController,37,0,test_phase2,NULL,PennController,40,_Trial_,End,1771502577878,2,test,8,Neg,A,NULL
1771502645,2318a0d32e4a9ab22d15d4e8503487b3,PennController,32,0,test_phase2,NULL,PennController,35,_Trial_,Start,1771502577881,2,test,7,Pos,A,NULL
1771502645,2318a0d32e4a9ab22d15d4e8503487b3,PennController,32,0,test_phase2,NULL,PennController,35,_Header_,Start,1771502577881,2,test,7,Pos,A,NULL
1771502645,2318a0d32e4a9ab22d15d4e8503487b3,PennController,32,0,test_phase2,NULL,PennController,35,_Header_,End,1771502578135,2,test,7,Pos,A,NULL
1771502645,2318a0d32e4a9ab22d15d4e8503487b3,PennController,32,0,test_phase2,NULL,Scale,R5,Choice,Neither of us needs to be mistaken,1771502582228,2,test,7,Pos,A,NULL
1771502645,2318a0d32e4a9ab22d15d4e8503487b3,PennController,32,0,test_phase2,NULL,Scale,R6,Choice,Extremely comfortable,1771502582656,2,test,7,Pos,A,NULL
1771502645,2318a0d32e4a9ab22d15d4e8503487b3,PennController,32,0,test_phase2,NULL,PennController,35,_Trial_,End,1771502583269,2,test,7,Pos,A,NULL
1771502645,2318a0d32e4a9ab22d15d4e8503487b3,PennController,33,0,test_phase2,NULL,PennController,36,_Trial_,Start,1771502583271,2,test,9,Pos,A,NULL
1771502645,2318a0d32e4a9ab22d15d4e8503487b3,PennController,33,0,test_phase2,NULL,PennController,36,_Header_,Start,1771502583271,2,test,9,Pos,A,NULL
1771502645,2318a0d32e4a9ab22d15d4e8503487b3,PennController,33,0,test_phase2,NULL,PennController,36,_Header_,End,1771502583526,2,test,9,Pos,A,NULL
1771502645,2318a0d32e4a9ab22d15d4e8503487b3,PennController,33,0,test_phase2,NULL,Scale,R5,Choice,The other person is maybe mistaken,1771502589400,2,test,9,Pos,A,NULL
1771502645,2318a0d32e4a9ab22d15d4e8503487b3,PennController,33,0,test_phase2,NULL,Scale,R6,Choice,Mildly comfortable,1771502592428,2,test,9,Pos,A,NULL
1771502645,2318a0d32e4a9ab22d15d4e8503487b3,PennController,33,0,test_phase2,NULL,PennController,36,_Trial_,End,1771502593047,2,test,9,Pos,A,NULL
1771502645,2318a0d32e4a9ab22d15d4e8503487b3,PennController,34,0,test_phase2,NULL,PennController,37,_Trial_,Start,1771502593047,2,test,2,Neg,A,NULL
1771502645,2318a0d32e4a9ab22d15d4e8503487b3,PennController,34,0,test_phase2,NULL,PennController,37,_Header_,Start,1771502593047,2,test,2,Neg,A,NULL
1771502645,2318a0d32e4a9ab22d15d4e8503487b3,PennController,34,0,test_phase2,NULL,PennController,37,_Header_,End,1771502593299,2,test,2,Neg,A,NULL
1771502645,2318a0d32e4a9ab22d15d4e8503487b3,PennController,34,0,test_phase2,NULL,Scale,R5,Choice,The other person is maybe mistaken,1771502596725,2,test,2,Neg,A,NULL
1771502645,2318a0d32e4a9ab22d15d4e8503487b3,PennController,34,0,test_phase2,NULL,Scale,R6,Choice,Mildly comfortable,1771502598586,2,test,2,Neg,A,NULL
1771502645,2318a0d32e4a9ab22d15d4e8503487b3,PennController,34,0,test_phase2,NULL,PennController,37,_Trial_,End,1771502599256,2,test,2,Neg,A,NULL
1771502645,2318a0d32e4a9ab22d15d4e8503487b3,PennController,29,0,test_phase2,NULL,PennController,32,_Trial_,Start,1771502599257,2,test,1,Pos,A,NULL
1771502645,2318a0d32e4a9ab22d15d4e8503487b3,PennController,29,0,test_phase2,NULL,PennController,32,_Header_,Start,1771502599257,2,test,1,Pos,A,NULL
1771502645,2318a0d32e4a9ab22d15d4e8503487b3,PennController,29,0,test_phase2,NULL,PennController,32,_Header_,End,1771502599509,2,test,1,Pos,A,NULL
1771502645,2318a0d32e4a9ab22d15d4e8503487b3,PennController,29,0,test_phase2,NULL,Scale,R5,Choice,Maybe neither of us needs to be mistaken,1771502602808,2,test,1,Pos,A,NULL
1771502645,2318a0d32e4a9ab22d15d4e8503487b3,PennController,29,0,test_phase2,NULL,Scale,R6,Choice,Very comfortable,1771502604571,2,test,1,Pos,A,NULL
1771502645,2318a0d32e4a9ab22d15d4e8503487b3,PennController,29,0,test_phase2,NULL,PennController,32,_Trial_,End,1771502604937,2,test,1,Pos,A,NULL
1771502645,2318a0d32e4a9ab22d15d4e8503487b3,PennController,35,0,test_phase2,NULL,PennController,38,_Trial_,Start,1771502604938,2,test,4,Neg,A,NULL
1771502645,2318a0d32e4a9ab22d15d4e8503487b3,PennController,35,0,test_phase2,NULL,PennController,38,_Header_,Start,1771502604938,2,test,4,Neg,A,NULL
1771502645,2318a0d32e4a9ab22d15d4e8503487b3,PennController,35,0,test_phase2,NULL,PennController,38,_Header_,End,1771502605188,2,test,4,Neg,A,NULL
1771502645,2318a0d32e4a9ab22d15d4e8503487b3,PennController,35,0,test_phase2,NULL,Scale,R5,Choice,The other person is likely mistaken,1771502608773,2,test,4,Neg,A,NULL
1771502645,2318a0d32e4a9ab22d15d4e8503487b3,PennController,35,0,test_phase2,NULL,Scale,R6,Choice,Mildly uncomfortable,1771502610584,2,test,4,Neg,A,NULL
1771502645,2318a0d32e4a9ab22d15d4e8503487b3,PennController,35,0,test_phase2,NULL,PennController,38,_Trial_,End,1771502611391,2,test,4,Neg,A,NULL
1771502645,2318a0d32e4a9ab22d15d4e8503487b3,PennController,30,0,test_phase2,NULL,PennController,33,_Trial_,Start,1771502611392,2,test,3,Pos,A,NULL
1771502645,2318a0d32e4a9ab22d15d4e8503487b3,PennController,30,0,test_phase2,NULL,PennController,33,_Header_,Start,1771502611392,2,test,3,Pos,A,NULL
1771502645,2318a0d32e4a9ab22d15d4e8503487b3,PennController,30,0,test_phase2,NULL,PennController,33,_Header_,End,1771502611642,2,test,3,Pos,A,NULL
1771502645,2318a0d32e4a9ab22d15d4e8503487b3,PennController,30,0,test_phase2,NULL,Scale,R5,Choice,Neither of us needs to be mistaken,1771502614229,2,test,3,Pos,A,NULL
1771502645,2318a0d32e4a9ab22d15d4e8503487b3,PennController,30,0,test_phase2,NULL,Scale,R6,Choice,Extremely comfortable,1771502614955,2,test,3,Pos,A,NULL
1771502645,2318a0d32e4a9ab22d15d4e8503487b3,PennController,30,0,test_phase2,NULL,PennController,33,_Trial_,End,1771502615345,2,test,3,Pos,A,NULL
# 13. Comments.
1771502645,2318a0d32e4a9ab22d15d4e8503487b3,PennController,40,0,demo,NULL,PennController,3,_Trial_,Start,1771502615346,NULL
1771502645,2318a0d32e4a9ab22d15d4e8503487b3,PennController,40,0,demo,NULL,PennController,3,_Header_,Start,1771502615346,NULL
1771502645,2318a0d32e4a9ab22d15d4e8503487b3,PennController,40,0,demo,NULL,PennController,3,_Header_,End,1771502615598,NULL
1771502645,2318a0d32e4a9ab22d15d4e8503487b3,PennController,40,0,demo,NULL,Html,bg_form,country,US,1771502645354,text input
1771502645,2318a0d32e4a9ab22d15d4e8503487b3,PennController,40,0,demo,NULL,Html,bg_form,lang1,English,1771502645354,text input
1771502645,2318a0d32e4a9ab22d15d4e8503487b3,PennController,40,0,demo,NULL,Html,bg_form,lang2,,1771502645354,text input
1771502645,2318a0d32e4a9ab22d15d4e8503487b3,PennController,40,0,demo,NULL,Html,bg_form,lang3,,1771502645354,text input
1771502645,2318a0d32e4a9ab22d15d4e8503487b3,PennController,40,0,demo,NULL,Html,bg_form,moral_reason,unchecked,1771502645354,checkbox
1771502645,2318a0d32e4a9ab22d15d4e8503487b3,PennController,40,0,demo,NULL,Html,bg_form,moral_reason,checked,1771502645354,checkbox
1771502645,2318a0d32e4a9ab22d15d4e8503487b3,PennController,40,0,demo,NULL,Html,bg_form,moral_reason,checked,1771502645354,checkbox
1771502645,2318a0d32e4a9ab22d15d4e8503487b3,PennController,40,0,demo,NULL,Html,bg_form,moral_reason,unchecked,1771502645354,checkbox
1771502645,2318a0d32e4a9ab22d15d4e8503487b3,PennController,40,0,demo,NULL,Html,bg_form,religion,unchecked,1771502645354,checkbox
1771502645,2318a0d32e4a9ab22d15d4e8503487b3,PennController,40,0,demo,NULL,Html,bg_form,religion,checked,1771502645354,checkbox
1771502645,2318a0d32e4a9ab22d15d4e8503487b3,PennController,40,0,demo,NULL,Html,bg_form,religion,unchecked,1771502645354,checkbox
1771502645,2318a0d32e4a9ab22d15d4e8503487b3,PennController,40,0,demo,NULL,Html,bg_form,religion,unchecked,1771502645354,checkbox
1771502645,2318a0d32e4a9ab22d15d4e8503487b3,PennController,40,0,demo,NULL,Html,bg_form,religion,unchecked,1771502645354,checkbox
1771502645,2318a0d32e4a9ab22d15d4e8503487b3,PennController,40,0,demo,NULL,Html,bg_form,religion,unchecked,1771502645354,checkbox
1771502645,2318a0d32e4a9ab22d15d4e8503487b3,PennController,40,0,demo,NULL,Html,bg_form,religion,unchecked,1771502645354,checkbox
1771502645,2318a0d32e4a9ab22d15d4e8503487b3,PennController,40,0,demo,NULL,Html,bg_form,religion,unchecked,1771502645354,checkbox
1771502645,2318a0d32e4a9ab22d15d4e8503487b3,PennController,40,0,demo,NULL,Html,bg_form,religion,unchecked,1771502645354,checkbox
1771502645,2318a0d32e4a9ab22d15d4e8503487b3,PennController,40,0,demo,NULL,Html,bg_form,religion,unchecked,1771502645354,checkbox
1771502645,2318a0d32e4a9ab22d15d4e8503487b3,PennController,40,0,demo,NULL,Html,bg_form,lang4,unchecked,1771502645354,checkbox
1771502645,2318a0d32e4a9ab22d15d4e8503487b3,PennController,40,0,demo,NULL,Html,bg_form,rightwrong,yes,1771502645354,radio button
1771502645,2318a0d32e4a9ab22d15d4e8503487b3,PennController,40,0,demo,NULL,Html,bg_form,gender,man,1771502645354,radio button
1771502645,2318a0d32e4a9ab22d15d4e8503487b3,PennController,40,0,demo,NULL,PennController,3,_Trial_,End,1771502645354,NULL
#
# Results on Thu, 19 Feb 2026 12:06:14 GMT
# USER AGENT: Mozilla/5.0 (X11; CrOS x86_64 14541.0.0) AppleWebKit/537.36 (KHTML, like Gecko) Chrome/126.0.0.0 Safari/537.36
# Design number was non-random = 0
#
# Columns below this comment are as follows:
# 1. Results reception time.
# 2. MD5 hash of participant's IP address.
# 3. Controller name.
# 4. Order number of item.
# 5. Inner element number.
# 6. Label.
# 7. Latin Square Group.
# 8. PennElementType.
# 9. PennElementName.
# 10. Parameter.
# 11. Value.
# 12. EventTime.
# 13. Comments.
1771502774,f8b771c32f8baf1cc6a87bcf95b203f5,PennController,0,0,welcome,NULL,PennController,0,_Trial_,Start,1771501883994,NULL
1771502774,f8b771c32f8baf1cc6a87bcf95b203f5,PennController,0,0,welcome,NULL,PennController,0,_Header_,Start,1771501883994,NULL
1771502774,f8b771c32f8baf1cc6a87bcf95b203f5,PennController,0,0,welcome,NULL,PennController,0,_Header_,End,1771501884248,NULL
1771502774,f8b771c32f8baf1cc6a87bcf95b203f5,PennController,0,0,welcome,NULL,PennController,0,_Trial_,End,1771501907976,NULL
1771502774,f8b771c32f8baf1cc6a87bcf95b203f5,PennController,39,0,consent,NULL,PennController,2,_Trial_,Start,1771501907991,NULL
1771502774,f8b771c32f8baf1cc6a87bcf95b203f5,PennController,39,0,consent,NULL,PennController,2,_Header_,Start,1771501907992,NULL
1771502774,f8b771c32f8baf1cc6a87bcf95b203f5,PennController,39,0,consent,NULL,PennController,2,_Header_,End,1771501908243,NULL
1771502774,f8b771c32f8baf1cc6a87bcf95b203f5,PennController,39,0,consent,NULL,PennController,2,_Trial_,End,1771501918214,NULL
1771502774,f8b771c32f8baf1cc6a87bcf95b203f5,PennController,41,0,instructions1,NULL,PennController,4,_Trial_,Start,1771501918223,NULL
1771502774,f8b771c32f8baf1cc6a87bcf95b203f5,PennController,41,0,instructions1,NULL,PennController,4,_Header_,Start,1771501918223,NULL
1771502774,f8b771c32f8baf1cc6a87bcf95b203f5,PennController,41,0,instructions1,NULL,PennController,4,_Header_,End,1771501918476,NULL
1771502774,f8b771c32f8baf1cc6a87bcf95b203f5,PennController,41,0,instructions1,NULL,PennController,4,_Trial_,End,1771501922173,NULL
# 13. TrialType.
# 14. Number.
# 15. Valence.
# 16. Group.
# 17. Comments.
1771502774,f8b771c32f8baf1cc6a87bcf95b203f5,PennController,4,0,practice,NULL,PennController,7,_Trial_,Start,1771501922179,Practice,2,none,none,NULL
1771502774,f8b771c32f8baf1cc6a87bcf95b203f5,PennController,4,0,practice,NULL,PennController,7,_Header_,Start,1771501922179,Practice,2,none,none,NULL
1771502774,f8b771c32f8baf1cc6a87bcf95b203f5,PennController,4,0,practice,NULL,PennController,7,_Header_,End,1771501922432,Practice,2,none,none,NULL
1771502774,f8b771c32f8baf1cc6a87bcf95b203f5,PennController,4,0,practice,NULL,Scale,R1A,Choice,Very wrong,1771501940061,Practice,2,none,none,NULL
1771502774,f8b771c32f8baf1cc6a87bcf95b203f5,PennController,4,0,practice,NULL,Scale,R2,Choice,Definitely there is a correct answer,1771501951215,Practice,2,none,none,NULL
1771502774,f8b771c32f8baf1cc6a87bcf95b203f5,PennController,4,0,practice,NULL,Scale,R3,Choice,Almost everyone would agree with me,1771501959255,Practice,2,none,none,NULL
1771502774,f8b771c32f8baf1cc6a87bcf95b203f5,PennController,4,0,practice,NULL,Scale,R4,Choice,Very easy,1771501962561,Practice,2,none,none,NULL
1771502774,f8b771c32f8baf1cc6a87bcf95b203f5,PennController,4,0,practice,NULL,PennController,7,_Trial_,End,1771501964133,Practice,2,none,none,NULL
1771502774,f8b771c32f8baf1cc6a87bcf95b203f5,PennController,3,0,practice,NULL,PennController,6,_Trial_,Start,1771501964139,Practice,1,none,none,NULL
1771502774,f8b771c32f8baf1cc6a87bcf95b203f5,PennController,3,0,practice,NULL,PennController,6,_Header_,Start,1771501964139,Practice,1,none,none,NULL
1771502774,f8b771c32f8baf1cc6a87bcf95b203f5,PennController,3,0,practice,NULL,PennController,6,_Header_,End,1771501964390,Practice,1,none,none,NULL
1771502774,f8b771c32f8baf1cc6a87bcf95b203f5,PennController,3,0,practice,NULL,Scale,R1A,Choice,Very wrong,1771501971772,Practice,1,none,none,NULL
1771502774,f8b771c32f8baf1cc6a87bcf95b203f5,PennController,3,0,practice,NULL,Scale,R2,Choice,Definitely there is a correct answer,1771501977816,Practice,1,none,none,NULL
1771502774,f8b771c32f8baf1cc6a87bcf95b203f5,PennController,3,0,practice,NULL,Scale,R3,Choice,Almost everyone would agree with me,1771501980857,Practice,1,none,none,NULL
1771502774,f8b771c32f8baf1cc6a87bcf95b203f5,PennController,3,0,practice,NULL,Scale,R4,Choice,Very easy,1771501983707,Practice,1,none,none,NULL
1771502774,f8b771c32f8baf1cc6a87bcf95b203f5,PennController,3,0,practice,NULL,PennController,6,_Trial_,End,1771501985127,Practice,1,none,none,NULL
# 13. Phase.
# 14. TrialType.
# 15. Number.
# 16. Valence.
# 17. Group.
# 18. Comments.
1771502774,f8b771c32f8baf1cc6a87bcf95b203f5,PennController,6,0,test_phase1,NULL,PennController,9,_Trial_,Start,1771501985134,1,test,3,Pos,A,NULL
1771502774,f8b771c32f8baf1cc6a87bcf95b203f5,PennController,6,0,test_phase1,NULL,PennController,9,_Header_,Start,1771501985134,1,test,3,Pos,A,NULL
1771502774,f8b771c32f8baf1cc6a87bcf95b203f5,PennController,6,0,test_phase1,NULL,PennController,9,_Header_,End,1771501985387,1,test,3,Pos,A,NULL
1771502774,f8b771c32f8baf1cc6a87bcf95b203f5,PennController,6,0,test_phase1,NULL,Scale,R1A,Choice,Right,1771502030670,1,test,3,Pos,A,NULL
1771502774,f8b771c32f8baf1cc6a87bcf95b203f5,PennController,6,0,test_phase1,NULL,Scale,R2,Choice,Probably there is a correct answer,1771502036667,1,test,3,Pos,A,NULL
1771502774,f8b771c32f8baf1cc6a87bcf95b203f5,PennController,6,0,test_phase1,NULL,Scale,R3,Choice,Some of them would agree with me,1771502041471,1,test,3,Pos,A,NULL
1771502774,f8b771c32f8baf1cc6a87bcf95b203f5,PennController,6,0,test_phase1,NULL,Scale,R4,Choice,Somewhat easy,1771502044374,1,test,3,Pos,A,NULL
1771502774,f8b771c32f8baf1cc6a87bcf95b203f5,PennController,6,0,test_phase1,NULL,PennController,9,_Trial_,End,1771502045632,1,test,3,Pos,A,NULL
1771502774,f8b771c32f8baf1cc6a87bcf95b203f5,PennController,5,0,test_phase1,NULL,PennController,8,_Trial_,Start,1771502045638,1,test,1,Pos,A,NULL
1771502774,f8b771c32f8baf1cc6a87bcf95b203f5,PennController,5,0,test_phase1,NULL,PennController,8,_Header_,Start,1771502045638,1,test,1,Pos,A,NULL
1771502774,f8b771c32f8baf1cc6a87bcf95b203f5,PennController,5,0,test_phase1,NULL,PennController,8,_Header_,End,1771502045891,1,test,1,Pos,A,NULL
1771502774,f8b771c32f8baf1cc6a87bcf95b203f5,PennController,5,0,test_phase1,NULL,Scale,R1A,Choice,Very right,1771502057190,1,test,1,Pos,A,NULL
1771502774,f8b771c32f8baf1cc6a87bcf95b203f5,PennController,5,0,test_phase1,NULL,Scale,R2,Choice,Definitely no correct answer,1771502060663,1,test,1,Pos,A,NULL
1771502774,f8b771c32f8baf1cc6a87bcf95b203f5,PennController,5,0,test_phase1,NULL,Scale,R4,Choice,Very easy,1771502066474,1,test,1,Pos,A,NULL
