#
# Results on Mon, 16 Feb 2026 16:14:12 GMT
# USER AGENT: Mozilla/5.0 (Macintosh; Intel Mac OS X 10.15; rv:147.0) Gecko/20100101 Firefox/147.0
# Design number was non-random = 0
#
# Columns below this comment are as follows:
# 1. Results reception time.
# 2. MD5 hash of participant's IP address.
# 3. Controller name.
# 4. Order number of item.
# 5. Inner element number.
# 6. Label.
# 7. Latin Square Group.
# 8. PennElementType.
# 9. PennElementName.
# 10. Parameter.
# 11. Value.
# 12. EventTime.
# 13. Comments.
1771258452,c5c99444ae73f2131ac234b9f0fe0e44,PennController,0,0,welcome,NULL,PennController,0,_Trial_,Start,1771258139320,NULL
1771258452,c5c99444ae73f2131ac234b9f0fe0e44,PennController,0,0,welcome,NULL,PennController,0,_Header_,Start,1771258139320,NULL
1771258452,c5c99444ae73f2131ac234b9f0fe0e44,PennController,0,0,welcome,NULL,PennController,0,_Header_,End,1771258139571,NULL
1771258452,c5c99444ae73f2131ac234b9f0fe0e44,PennController,0,0,welcome,NULL,PennController,0,_Trial_,End,1771258140703,NULL
1771258452,c5c99444ae73f2131ac234b9f0fe0e44,PennController,39,0,consent,NULL,PennController,2,_Trial_,Start,1771258140707,NULL
1771258452,c5c99444ae73f2131ac234b9f0fe0e44,PennController,39,0,consent,NULL,PennController,2,_Header_,Start,1771258140707,NULL
1771258452,c5c99444ae73f2131ac234b9f0fe0e44,PennController,39,0,consent,NULL,PennController,2,_Header_,End,1771258140957,NULL
1771258452,c5c99444ae73f2131ac234b9f0fe0e44,PennController,39,0,consent,NULL,PennController,2,_Trial_,End,1771258229396,NULL
1771258452,c5c99444ae73f2131ac234b9f0fe0e44,PennController,41,0,instructions1,NULL,PennController,4,_Trial_,Start,1771258229401,NULL
1771258452,c5c99444ae73f2131ac234b9f0fe0e44,PennController,41,0,instructions1,NULL,PennController,4,_Header_,Start,1771258229401,NULL
1771258452,c5c99444ae73f2131ac234b9f0fe0e44,PennController,41,0,instructions1,NULL,PennController,4,_Header_,End,1771258229652,NULL
1771258452,c5c99444ae73f2131ac234b9f0fe0e44,PennController,41,0,instructions1,NULL,PennController,4,_Trial_,End,1771258231057,NULL
# 13. TrialType.
# 14. Number.
# 15. Valence.
# 16. Group.
# 17. Comments.
1771258452,c5c99444ae73f2131ac234b9f0fe0e44,PennController,4,0,practice,NULL,PennController,7,_Trial_,Start,1771258231060,Practice,2,none,none,NULL
1771258452,c5c99444ae73f2131ac234b9f0fe0e44,PennController,4,0,practice,NULL,PennController,7,_Header_,Start,1771258231060,Practice,2,none,none,NULL
1771258452,c5c99444ae73f2131ac234b9f0fe0e44,PennController,4,0,practice,NULL,PennController,7,_Header_,End,1771258231315,Practice,2,none,none,NULL
1771258452,c5c99444ae73f2131ac234b9f0fe0e44,PennController,4,0,practice,NULL,Scale,R1A,Choice,Somewhat right,1771258232571,Practice,2,none,none,NULL
1771258452,c5c99444ae73f2131ac234b9f0fe0e44,PennController,4,0,practice,NULL,Scale,R2,Choice,Maybe there is a correct answer,1771258233098,Practice,2,none,none,NULL
1771258452,c5c99444ae73f2131ac234b9f0fe0e44,PennController,4,0,practice,NULL,Scale,R3,Choice,Some of them would agree with me,1771258233667,Practice,2,none,none,NULL
1771258452,c5c99444ae73f2131ac234b9f0fe0e44,PennController,4,0,practice,NULL,Scale,R4,Choice,Somewhat easy,1771258234218,Practice,2,none,none,NULL
1771258452,c5c99444ae73f2131ac234b9f0fe0e44,PennController,4,0,practice,NULL,PennController,7,_Trial_,End,1771258235087,Practice,2,none,none,NULL
1771258452,c5c99444ae73f2131ac234b9f0fe0e44,PennController,3,0,practice,NULL,PennController,6,_Trial_,Start,1771258235089,Practice,1,none,none,NULL
1771258452,c5c99444ae73f2131ac234b9f0fe0e44,PennController,3,0,practice,NULL,PennController,6,_Header_,Start,1771258235089,Practice,1,none,none,NULL
1771258452,c5c99444ae73f2131ac234b9f0fe0e44,PennController,3,0,practice,NULL,PennController,6,_Header_,End,1771258235341,Practice,1,none,none,NULL
1771258452,c5c99444ae73f2131ac234b9f0fe0e44,PennController,3,0,practice,NULL,Scale,R1A,Choice,Right,1771258236423,Practice,1,none,none,NULL
1771258452,c5c99444ae73f2131ac234b9f0fe0e44,PennController,3,0,practice,NULL,Scale,R2,Choice,Definitely no correct answer,1771258236800,Practice,1,none,none,NULL
1771258452,c5c99444ae73f2131ac234b9f0fe0e44,PennController,3,0,practice,NULL,Scale,R3,Choice,Almost everyone would disagree with me,1771258237339,Practice,1,none,none,NULL
1771258452,c5c99444ae73f2131ac234b9f0fe0e44,PennController,3,0,practice,NULL,Scale,R4,Choice,A little easy,1771258237873,Practice,1,none,none,NULL
1771258452,c5c99444ae73f2131ac234b9f0fe0e44,PennController,3,0,practice,NULL,PennController,6,_Trial_,End,1771258239591,Practice,1,none,none,NULL
# 13. Phase.
# 14. TrialType.
# 15. Number.
# 16. Valence.
# 17. Group.
# 18. Comments.
1771258452,c5c99444ae73f2131ac234b9f0fe0e44,PennController,7,0,test_phase1,NULL,PennController,10,_Trial_,Start,1771258239593,1,test,5,Pos,A,NULL
1771258452,c5c99444ae73f2131ac234b9f0fe0e44,PennController,7,0,test_phase1,NULL,PennController,10,_Header_,Start,1771258239593,1,test,5,Pos,A,NULL
1771258452,c5c99444ae73f2131ac234b9f0fe0e44,PennController,7,0,test_phase1,NULL,PennController,10,_Header_,End,1771258239847,1,test,5,Pos,A,NULL
1771258452,c5c99444ae73f2131ac234b9f0fe0e44,PennController,7,0,test_phase1,NULL,Scale,R1A,Choice,Very wrong,1771258241117,1,test,5,Pos,A,NULL
1771258452,c5c99444ae73f2131ac234b9f0fe0e44,PennController,7,0,test_phase1,NULL,Scale,R2,Choice,Probably no correct answer,1771258241686,1,test,5,Pos,A,NULL
1771258452,c5c99444ae73f2131ac234b9f0fe0e44,PennController,7,0,test_phase1,NULL,Scale,R3,Choice,Some of them would agree with me,1771258242230,1,test,5,Pos,A,NULL
1771258452,c5c99444ae73f2131ac234b9f0fe0e44,PennController,7,0,test_phase1,NULL,Scale,R4,Choice,A little difficult,1771258243346,1,test,5,Pos,A,NULL
1771258452,c5c99444ae73f2131ac234b9f0fe0e44,PennController,7,0,test_phase1,NULL,PennController,10,_Trial_,End,1771258244331,1,test,5,Pos,A,NULL
1771258452,c5c99444ae73f2131ac234b9f0fe0e44,PennController,6,0,test_phase1,NULL,PennController,9,_Trial_,Start,1771258244333,1,test,3,Pos,A,NULL
1771258452,c5c99444ae73f2131ac234b9f0fe0e44,PennController,6,0,test_phase1,NULL,PennController,9,_Header_,Start,1771258244333,1,test,3,Pos,A,NULL
1771258452,c5c99444ae73f2131ac234b9f0fe0e44,PennController,6,0,test_phase1,NULL,PennController,9,_Header_,End,1771258244584,1,test,3,Pos,A,NULL
1771258452,c5c99444ae73f2131ac234b9f0fe0e44,PennController,6,0,test_phase1,NULL,Scale,R1A,Choice,Somewhat right,1771258256985,1,test,3,Pos,A,NULL
1771258452,c5c99444ae73f2131ac234b9f0fe0e44,PennController,6,0,test_phase1,NULL,Scale,R2,Choice,Maybe no correct answer,1771258257504,1,test,3,Pos,A,NULL
1771258452,c5c99444ae73f2131ac234b9f0fe0e44,PennController,6,0,test_phase1,NULL,Scale,R3,Choice,Almost everyone would agree with me,1771258258007,1,test,3,Pos,A,NULL
1771258452,c5c99444ae73f2131ac234b9f0fe0e44,PennController,6,0,test_phase1,NULL,Scale,R4,Choice,Somewhat easy,1771258258830,1,test,3,Pos,A,NULL
1771258452,c5c99444ae73f2131ac234b9f0fe0e44,PennController,6,0,test_phase1,NULL,PennController,9,_Trial_,End,1771258259851,1,test,3,Pos,A,NULL
1771258452,c5c99444ae73f2131ac234b9f0fe0e44,PennController,5,0,test_phase1,NULL,PennController,8,_Trial_,Start,1771258259853,1,test,1,Pos,A,NULL
1771258452,c5c99444ae73f2131ac234b9f0fe0e44,PennController,5,0,test_phase1,NULL,PennController,8,_Header_,Start,1771258259853,1,test,1,Pos,A,NULL
1771258452,c5c99444ae73f2131ac234b9f0fe0e44,PennController,5,0,test_phase1,NULL,PennController,8,_Header_,End,1771258260105,1,test,1,Pos,A,NULL
1771258452,c5c99444ae73f2131ac234b9f0fe0e44,PennController,5,0,test_phase1,NULL,Scale,R1A,Choice,Somewhat right,1771258260705,1,test,1,Pos,A,NULL
1771258452,c5c99444ae73f2131ac234b9f0fe0e44,PennController,5,0,test_phase1,NULL,Scale,R3,Choice,Most of them would disagree with me,1771258261663,1,test,1,Pos,A,NULL
1771258452,c5c99444ae73f2131ac234b9f0fe0e44,PennController,5,0,test_phase1,NULL,Scale,R2,Choice,Probably there is a correct answer,1771258262031,1,test,1,Pos,A,NULL
1771258452,c5c99444ae73f2131ac234b9f0fe0e44,PennController,5,0,test_phase1,NULL,Scale,R4,Choice,A little easy,1771258262697,1,test,1,Pos,A,NULL
1771258452,c5c99444ae73f2131ac234b9f0fe0e44,PennController,5,0,test_phase1,NULL,PennController,8,_Trial_,End,1771258264364,1,test,1,Pos,A,NULL
1771258452,c5c99444ae73f2131ac234b9f0fe0e44,PennController,11,0,test_phase1,NULL,PennController,14,_Trial_,Start,1771258264366,1,test,4,Neg,A,NULL
1771258452,c5c99444ae73f2131ac234b9f0fe0e44,PennController,11,0,test_phase1,NULL,PennController,14,_Header_,Start,1771258264366,1,test,4,Neg,A,NULL
1771258452,c5c99444ae73f2131ac234b9f0fe0e44,PennController,11,0,test_phase1,NULL,PennController,14,_Header_,End,1771258264617,1,test,4,Neg,A,NULL
1771258452,c5c99444ae73f2131ac234b9f0fe0e44,PennController,11,0,test_phase1,NULL,Scale,R1A,Choice,Somewhat right,1771258265240,1,test,4,Neg,A,NULL
1771258452,c5c99444ae73f2131ac234b9f0fe0e44,PennController,11,0,test_phase1,NULL,Scale,R2,Choice,Definitely no correct answer,1771258265611,1,test,4,Neg,A,NULL
1771258452,c5c99444ae73f2131ac234b9f0fe0e44,PennController,11,0,test_phase1,NULL,Scale,R3,Choice,Most of them would disagree with me,1771258266146,1,test,4,Neg,A,NULL
1771258452,c5c99444ae73f2131ac234b9f0fe0e44,PennController,11,0,test_phase1,NULL,Scale,R4,Choice,A little easy,1771258266929,1,test,4,Neg,A,NULL
1771258452,c5c99444ae73f2131ac234b9f0fe0e44,PennController,11,0,test_phase1,NULL,PennController,14,_Trial_,End,1771258267946,1,test,4,Neg,A,NULL
1771258452,c5c99444ae73f2131ac234b9f0fe0e44,PennController,12,0,test_phase1,NULL,PennController,15,_Trial_,Start,1771258267948,1,test,6,Neg,A,NULL
1771258452,c5c99444ae73f2131ac234b9f0fe0e44,PennController,12,0,test_phase1,NULL,PennController,15,_Header_,Start,1771258267948,1,test,6,Neg,A,NULL
1771258452,c5c99444ae73f2131ac234b9f0fe0e44,PennController,12,0,test_phase1,NULL,PennController,15,_Header_,End,1771258268200,1,test,6,Neg,A,NULL
1771258452,c5c99444ae73f2131ac234b9f0fe0e44,PennController,12,0,test_phase1,NULL,Scale,R1A,Choice,Somewhat wrong,1771258268690,1,test,6,Neg,A,NULL
1771258452,c5c99444ae73f2131ac234b9f0fe0e44,PennController,12,0,test_phase1,NULL,Scale,R2,Choice,Definitely there is a correct answer,1771258269118,1,test,6,Neg,A,NULL
1771258452,c5c99444ae73f2131ac234b9f0fe0e44,PennController,12,0,test_phase1,NULL,Scale,R3,Choice,Some of them would disagree with me,1771258269630,1,test,6,Neg,A,NULL
1771258452,c5c99444ae73f2131ac234b9f0fe0e44,PennController,12,0,test_phase1,NULL,Scale,R4,Choice,Very easy,1771258270700,1,test,6,Neg,A,NULL
1771258452,c5c99444ae73f2131ac234b9f0fe0e44,PennController,12,0,test_phase1,NULL,PennController,15,_Trial_,End,1771258272057,1,test,6,Neg,A,NULL
1771258452,c5c99444ae73f2131ac234b9f0fe0e44,PennController,14,0,test_phase1,NULL,PennController,17,_Trial_,Start,1771258272058,1,test,10,Neg,A,NULL
1771258452,c5c99444ae73f2131ac234b9f0fe0e44,PennController,14,0,test_phase1,NULL,PennController,17,_Header_,Start,1771258272058,1,test,10,Neg,A,NULL
1771258452,c5c99444ae73f2131ac234b9f0fe0e44,PennController,14,0,test_phase1,NULL,PennController,17,_Header_,End,1771258272312,1,test,10,Neg,A,NULL
1771258452,c5c99444ae73f2131ac234b9f0fe0e44,PennController,14,0,test_phase1,NULL,Scale,R1A,Choice,Somewhat wrong,1771258272936,1,test,10,Neg,A,NULL
1771258452,c5c99444ae73f2131ac234b9f0fe0e44,PennController,14,0,test_phase1,NULL,Scale,R2,Choice,Maybe no correct answer,1771258273269,1,test,10,Neg,A,NULL
1771258452,c5c99444ae73f2131ac234b9f0fe0e44,PennController,14,0,test_phase1,NULL,Scale,R3,Choice,Some of them would disagree with me,1771258273605,1,test,10,Neg,A,NULL
1771258452,c5c99444ae73f2131ac234b9f0fe0e44,PennController,14,0,test_phase1,NULL,Scale,R4,Choice,A little easy,1771258274348,1,test,10,Neg,A,NULL
1771258452,c5c99444ae73f2131ac234b9f0fe0e44,PennController,14,0,test_phase1,NULL,PennController,17,_Trial_,End,1771258275633,1,test,10,Neg,A,NULL
1771258452,c5c99444ae73f2131ac234b9f0fe0e44,PennController,9,0,test_phase1,NULL,PennController,12,_Trial_,Start,1771258275634,1,test,9,Pos,A,NULL
1771258452,c5c99444ae73f2131ac234b9f0fe0e44,PennController,9,0,test_phase1,NULL,PennController,12,_Header_,Start,1771258275634,1,test,9,Pos,A,NULL
1771258452,c5c99444ae73f2131ac234b9f0fe0e44,PennController,9,0,test_phase1,NULL,PennController,12,_Header_,End,1771258275884,1,test,9,Pos,A,NULL
1771258452,c5c99444ae73f2131ac234b9f0fe0e44,PennController,9,0,test_phase1,NULL,Scale,R1A,Choice,Somewhat right,1771258276818,1,test,9,Pos,A,NULL
1771258452,c5c99444ae73f2131ac234b9f0fe0e44,PennController,9,0,test_phase1,NULL,Scale,R2,Choice,Maybe no correct answer,1771258277147,1,test,9,Pos,A,NULL
1771258452,c5c99444ae73f2131ac234b9f0fe0e44,PennController,9,0,test_phase1,NULL,Scale,R3,Choice,Some of them would disagree with me,1771258277695,1,test,9,Pos,A,NULL
1771258452,c5c99444ae73f2131ac234b9f0fe0e44,PennController,9,0,test_phase1,NULL,Scale,R4,Choice,A little easy,1771258279741,1,test,9,Pos,A,NULL
1771258452,c5c99444ae73f2131ac234b9f0fe0e44,PennController,9,0,test_phase1,NULL,PennController,12,_Trial_,End,1771258280965,1,test,9,Pos,A,NULL
1771258452,c5c99444ae73f2131ac234b9f0fe0e44,PennController,13,0,test_phase1,NULL,PennController,16,_Trial_,Start,1771258280967,1,test,8,Neg,A,NULL
1771258452,c5c99444ae73f2131ac234b9f0fe0e44,PennController,13,0,test_phase1,NULL,PennController,16,_Header_,Start,1771258280967,1,test,8,Neg,A,NULL
1771258452,c5c99444ae73f2131ac234b9f0fe0e44,PennController,13,0,test_phase1,NULL,PennController,16,_Header_,End,1771258281220,1,test,8,Neg,A,NULL
1771258452,c5c99444ae73f2131ac234b9f0fe0e44,PennController,13,0,test_phase1,NULL,Scale,R1A,Choice,Wrong,1771258281863,1,test,8,Neg,A,NULL
1771258452,c5c99444ae73f2131ac234b9f0fe0e44,PennController,13,0,test_phase1,NULL,Scale,R2,Choice,Probably there is a correct answer,1771258282283,1,test,8,Neg,A,NULL
1771258452,c5c99444ae73f2131ac234b9f0fe0e44,PennController,13,0,test_phase1,NULL,Scale,R3,Choice,Most of them would agree with me,1771258282818,1,test,8,Neg,A,NULL
1771258452,c5c99444ae73f2131ac234b9f0fe0e44,PennController,13,0,test_phase1,NULL,Scale,R4,Choice,A little difficult,1771258285153,1,test,8,Neg,A,NULL
1771258452,c5c99444ae73f2131ac234b9f0fe0e44,PennController,13,0,test_phase1,NULL,PennController,16,_Trial_,End,1771258285998,1,test,8,Neg,A,NULL
1771258452,c5c99444ae73f2131ac234b9f0fe0e44,PennController,8,0,test_phase1,NULL,PennController,11,_Trial_,Start,1771258286000,1,test,7,Pos,A,NULL
1771258452,c5c99444ae73f2131ac234b9f0fe0e44,PennController,8,0,test_phase1,NULL,PennController,11,_Header_,Start,1771258286000,1,test,7,Pos,A,NULL
1771258452,c5c99444ae73f2131ac234b9f0fe0e44,PennController,8,0,test_phase1,NULL,PennController,11,_Header_,End,1771258286250,1,test,7,Pos,A,NULL
1771258452,c5c99444ae73f2131ac234b9f0fe0e44,PennController,8,0,test_phase1,NULL,Scale,R1A,Choice,Somewhat right,1771258286754,1,test,7,Pos,A,NULL
1771258452,c5c99444ae73f2131ac234b9f0fe0e44,PennController,8,0,test_phase1,NULL,Scale,R2,Choice,Maybe there is a correct answer,1771258287303,1,test,7,Pos,A,NULL
1771258452,c5c99444ae73f2131ac234b9f0fe0e44,PennController,8,0,test_phase1,NULL,Scale,R3,Choice,Most of them would agree with me,1771258287760,1,test,7,Pos,A,NULL
1771258452,c5c99444ae73f2131ac234b9f0fe0e44,PennController,8,0,test_phase1,NULL,Scale,R4,Choice,Somewhat easy,1771258288259,1,test,7,Pos,A,NULL
1771258452,c5c99444ae73f2131ac234b9f0fe0e44,PennController,8,0,test_phase1,NULL,PennController,11,_Trial_,End,1771258289779,1,test,7,Pos,A,NULL
1771258452,c5c99444ae73f2131ac234b9f0fe0e44,PennController,10,0,test_phase1,NULL,PennController,13,_Trial_,Start,1771258289780,1,test,2,Neg,A,NULL
1771258452,c5c99444ae73f2131ac234b9f0fe0e44,PennController,10,0,test_phase1,NULL,PennController,13,_Header_,Start,1771258289780,1,test,2,Neg,A,NULL
1771258452,c5c99444ae73f2131ac234b9f0fe0e44,PennController,10,0,test_phase1,NULL,PennController,13,_Header_,End,1771258290033,1,test,2,Neg,A,NULL
1771258452,c5c99444ae73f2131ac234b9f0fe0e44,PennController,10,0,test_phase1,NULL,Scale,R1A,Choice,Very right,1771258291915,1,test,2,Neg,A,NULL
1771258452,c5c99444ae73f2131ac234b9f0fe0e44,PennController,10,0,test_phase1,NULL,Scale,R2,Choice,Maybe no correct answer,1771258292294,1,test,2,Neg,A,NULL
1771258452,c5c99444ae73f2131ac234b9f0fe0e44,PennController,10,0,test_phase1,NULL,Scale,R3,Choice,Most of them would agree with me,1771258292699,1,test,2,Neg,A,NULL
1771258452,c5c99444ae73f2131ac234b9f0fe0e44,PennController,10,0,test_phase1,NULL,Scale,R4,Choice,A little easy,1771258293252,1,test,2,Neg,A,NULL
1771258452,c5c99444ae73f2131ac234b9f0fe0e44,PennController,10,0,test_phase1,NULL,PennController,13,_Trial_,End,1771258294589,1,test,2,Neg,A,NULL
1771258452,c5c99444ae73f2131ac234b9f0fe0e44,PennController,21,0,fillers,NULL,PennController,24,_Trial_,Start,1771258294590,1,filler,7,none,none,NULL
1771258452,c5c99444ae73f2131ac234b9f0fe0e44,PennController,21,0,fillers,NULL,PennController,24,_Header_,Start,1771258294590,1,filler,7,none,none,NULL
1771258452,c5c99444ae73f2131ac234b9f0fe0e44,PennController,21,0,fillers,NULL,PennController,24,_Header_,End,1771258294843,1,filler,7,none,none,NULL
1771258452,c5c99444ae73f2131ac234b9f0fe0e44,PennController,21,0,fillers,NULL,Scale,R1A,Choice,Somewhat right,1771258295422,1,filler,7,none,none,NULL
1771258452,c5c99444ae73f2131ac234b9f0fe0e44,PennController,21,0,fillers,NULL,Scale,R2,Choice,Maybe no correct answer,1771258295760,1,filler,7,none,none,NULL
1771258452,c5c99444ae73f2131ac234b9f0fe0e44,PennController,21,0,fillers,NULL,Scale,R3,Choice,Some of them would agree with me,1771258296259,1,filler,7,none,none,NULL
1771258452,c5c99444ae73f2131ac234b9f0fe0e44,PennController,21,0,fillers,NULL,Scale,R4,Choice,A little easy,1771258296770,1,filler,7,none,none,NULL
1771258452,c5c99444ae73f2131ac234b9f0fe0e44,PennController,21,0,fillers,NULL,PennController,24,_Trial_,End,1771258298298,1,filler,7,none,none,NULL
1771258452,c5c99444ae73f2131ac234b9f0fe0e44,PennController,22,0,fillers,NULL,PennController,25,_Trial_,Start,1771258298299,1,filler,8,none,none,NULL
1771258452,c5c99444ae73f2131ac234b9f0fe0e44,PennController,22,0,fillers,NULL,PennController,25,_Header_,Start,1771258298299,1,filler,8,none,none,NULL
1771258452,c5c99444ae73f2131ac234b9f0fe0e44,PennController,22,0,fillers,NULL,PennController,25,_Header_,End,1771258298550,1,filler,8,none,none,NULL
1771258452,c5c99444ae73f2131ac234b9f0fe0e44,PennController,22,0,fillers,NULL,Scale,R1A,Choice,Very wrong,1771258299362,1,filler,8,none,none,NULL
1771258452,c5c99444ae73f2131ac234b9f0fe0e44,PennController,22,0,fillers,NULL,Scale,R2,Choice,Definitely there is a correct answer,1771258299739,1,filler,8,none,none,NULL
1771258452,c5c99444ae73f2131ac234b9f0fe0e44,PennController,22,0,fillers,NULL,Scale,R3,Choice,Some of them would agree with me,1771258300235,1,filler,8,none,none,NULL
1771258452,c5c99444ae73f2131ac234b9f0fe0e44,PennController,22,0,fillers,NULL,Scale,R4,Choice,A little easy,1771258301192,1,filler,8,none,none,NULL
1771258452,c5c99444ae73f2131ac234b9f0fe0e44,PennController,22,0,fillers,NULL,PennController,25,_Trial_,End,1771258302633,1,filler,8,none,none,NULL
1771258452,c5c99444ae73f2131ac234b9f0fe0e44,PennController,16,0,fillers,NULL,PennController,19,_Trial_,Start,1771258302635,1,filler,2,none,none,NULL
1771258452,c5c99444ae73f2131ac234b9f0fe0e44,PennController,16,0,fillers,NULL,PennController,19,_Header_,Start,1771258302635,1,filler,2,none,none,NULL
1771258452,c5c99444ae73f2131ac234b9f0fe0e44,PennController,16,0,fillers,NULL,PennController,19,_Header_,End,1771258302888,1,filler,2,none,none,NULL
1771258452,c5c99444ae73f2131ac234b9f0fe0e44,PennController,16,0,fillers,NULL,Scale,R1A,Choice,Somewhat right,1771258333405,1,filler,2,none,none,NULL
1771258452,c5c99444ae73f2131ac234b9f0fe0e44,PennController,16,0,fillers,NULL,Scale,R2,Choice,Probably no correct answer,1771258333725,1,filler,2,none,none,NULL
1771258452,c5c99444ae73f2131ac234b9f0fe0e44,PennController,16,0,fillers,NULL,Scale,R3,Choice,Some of them would agree with me,1771258334496,1,filler,2,none,none,NULL
1771258452,c5c99444ae73f2131ac234b9f0fe0e44,PennController,16,0,fillers,NULL,Scale,R4,Choice,Somewhat easy,1771258335303,1,filler,2,none,none,NULL
1771258452,c5c99444ae73f2131ac234b9f0fe0e44,PennController,16,0,fillers,NULL,PennController,19,_Trial_,End,1771258338007,1,filler,2,none,none,NULL
1771258452,c5c99444ae73f2131ac234b9f0fe0e44,PennController,26,0,fillers,NULL,PennController,29,_Trial_,Start,1771258338008,1,filler,12,none,none,NULL
1771258452,c5c99444ae73f2131ac234b9f0fe0e44,PennController,26,0,fillers,NULL,PennController,29,_Header_,Start,1771258338008,1,filler,12,none,none,NULL
1771258452,c5c99444ae73f2131ac234b9f0fe0e44,PennController,26,0,fillers,NULL,PennController,29,_Header_,End,1771258338261,1,filler,12,none,none,NULL
1771258452,c5c99444ae73f2131ac234b9f0fe0e44,PennController,26,0,fillers,NULL,Scale,R1A,Choice,Somewhat wrong,1771258340336,1,filler,12,none,none,NULL
1771258452,c5c99444ae73f2131ac234b9f0fe0e44,PennController,26,0,fillers,NULL,Scale,R2,Choice,Maybe no correct answer,1771258341144,1,filler,12,none,none,NULL
1771258452,c5c99444ae73f2131ac234b9f0fe0e44,PennController,26,0,fillers,NULL,Scale,R3,Choice,Almost everyone would disagree with me,1771258341547,1,filler,12,none,none,NULL
1771258452,c5c99444ae73f2131ac234b9f0fe0e44,PennController,26,0,fillers,NULL,Scale,R4,Choice,A little difficult,1771258342568,1,filler,12,none,none,NULL
1771258452,c5c99444ae73f2131ac234b9f0fe0e44,PennController,26,0,fillers,NULL,PennController,29,_Trial_,End,1771258343640,1,filler,12,none,none,NULL
1771258452,c5c99444ae73f2131ac234b9f0fe0e44,PennController,20,0,fillers,NULL,PennController,23,_Trial_,Start,1771258343641,1,filler,6,none,none,NULL
1771258452,c5c99444ae73f2131ac234b9f0fe0e44,PennController,20,0,fillers,NULL,PennController,23,_Header_,Start,1771258343642,1,filler,6,none,none,NULL
1771258452,c5c99444ae73f2131ac234b9f0fe0e44,PennController,20,0,fillers,NULL,PennController,23,_Header_,End,1771258343894,1,filler,6,none,none,NULL
1771258452,c5c99444ae73f2131ac234b9f0fe0e44,PennController,20,0,fillers,NULL,Scale,R1A,Choice,Somewhat wrong,1771258344361,1,filler,6,none,none,NULL
1771258452,c5c99444ae73f2131ac234b9f0fe0e44,PennController,20,0,fillers,NULL,Scale,R2,Choice,Maybe no correct answer,1771258344913,1,filler,6,none,none,NULL
1771258452,c5c99444ae73f2131ac234b9f0fe0e44,PennController,20,0,fillers,NULL,Scale,R3,Choice,Some of them would disagree with me,1771258345293,1,filler,6,none,none,NULL
1771258452,c5c99444ae73f2131ac234b9f0fe0e44,PennController,20,0,fillers,NULL,Scale,R4,Choice,Somewhat easy,1771258345812,1,filler,6,none,none,NULL
1771258452,c5c99444ae73f2131ac234b9f0fe0e44,PennController,20,0,fillers,NULL,PennController,23,_Trial_,End,1771258347822,1,filler,6,none,none,NULL
1771258452,c5c99444ae73f2131ac234b9f0fe0e44,PennController,18,0,fillers,NULL,PennController,21,_Trial_,Start,1771258347824,1,filler,4,none,none,NULL
1771258452,c5c99444ae73f2131ac234b9f0fe0e44,PennController,18,0,fillers,NULL,PennController,21,_Header_,Start,1771258347824,1,filler,4,none,none,NULL
1771258452,c5c99444ae73f2131ac234b9f0fe0e44,PennController,18,0,fillers,NULL,PennController,21,_Header_,End,1771258348076,1,filler,4,none,none,NULL
1771258452,c5c99444ae73f2131ac234b9f0fe0e44,PennController,18,0,fillers,NULL,Scale,R1A,Choice,Somewhat wrong,1771258349424,1,filler,4,none,none,NULL
1771258452,c5c99444ae73f2131ac234b9f0fe0e44,PennController,18,0,fillers,NULL,Scale,R2,Choice,Probably no correct answer,1771258349782,1,filler,4,none,none,NULL
1771258452,c5c99444ae73f2131ac234b9f0fe0e44,PennController,18,0,fillers,NULL,Scale,R3,Choice,Most of them would disagree with me,1771258350638,1,filler,4,none,none,NULL
1771258452,c5c99444ae73f2131ac234b9f0fe0e44,PennController,18,0,fillers,NULL,Scale,R4,Choice,Very easy,1771258351109,1,filler,4,none,none,NULL
1771258452,c5c99444ae73f2131ac234b9f0fe0e44,PennController,18,0,fillers,NULL,PennController,21,_Trial_,End,1771258352692,1,filler,4,none,none,NULL
1771258452,c5c99444ae73f2131ac234b9f0fe0e44,PennController,15,0,fillers,NULL,PennController,18,_Trial_,Start,1771258352694,1,filler,1,none,none,NULL
1771258452,c5c99444ae73f2131ac234b9f0fe0e44,PennController,15,0,fillers,NULL,PennController,18,_Header_,Start,1771258352694,1,filler,1,none,none,NULL
1771258452,c5c99444ae73f2131ac234b9f0fe0e44,PennController,15,0,fillers,NULL,PennController,18,_Header_,End,1771258352946,1,filler,1,none,none,NULL
1771258452,c5c99444ae73f2131ac234b9f0fe0e44,PennController,15,0,fillers,NULL,Scale,R1A,Choice,Somewhat right,1771258353882,1,filler,1,none,none,NULL
1771258452,c5c99444ae73f2131ac234b9f0fe0e44,PennController,15,0,fillers,NULL,Scale,R2,Choice,Definitely no correct answer,1771258354220,1,filler,1,none,none,NULL
1771258452,c5c99444ae73f2131ac234b9f0fe0e44,PennController,15,0,fillers,NULL,Scale,R3,Choice,Most of them would agree with me,1771258354706,1,filler,1,none,none,NULL
1771258452,c5c99444ae73f2131ac234b9f0fe0e44,PennController,15,0,fillers,NULL,Scale,R4,Choice,Somewhat easy,1771258355498,1,filler,1,none,none,NULL
1771258452,c5c99444ae73f2131ac234b9f0fe0e44,PennController,15,0,fillers,NULL,PennController,18,_Trial_,End,1771258356617,1,filler,1,none,none,NULL
1771258452,c5c99444ae73f2131ac234b9f0fe0e44,PennController,23,0,fillers,NULL,PennController,26,_Trial_,Start,1771258356618,1,filler,9,none,none,NULL
1771258452,c5c99444ae73f2131ac234b9f0fe0e44,PennController,23,0,fillers,NULL,PennController,26,_Header_,Start,1771258356618,1,filler,9,none,none,NULL
1771258452,c5c99444ae73f2131ac234b9f0fe0e44,PennController,23,0,fillers,NULL,PennController,26,_Header_,End,1771258356869,1,filler,9,none,none,NULL
1771258452,c5c99444ae73f2131ac234b9f0fe0e44,PennController,23,0,fillers,NULL,Scale,R1A,Choice,Somewhat right,1771258357491,1,filler,9,none,none,NULL
1771258452,c5c99444ae73f2131ac234b9f0fe0e44,PennController,23,0,fillers,NULL,Scale,R2,Choice,Probably there is a correct answer,1771258358180,1,filler,9,none,none,NULL
1771258452,c5c99444ae73f2131ac234b9f0fe0e44,PennController,23,0,fillers,NULL,Scale,R3,Choice,Some of them would agree with me,1771258358633,1,filler,9,none,none,NULL
1771258452,c5c99444ae73f2131ac234b9f0fe0e44,PennController,23,0,fillers,NULL,Scale,R4,Choice,A little difficult,1771258359061,1,filler,9,none,none,NULL
1771258452,c5c99444ae73f2131ac234b9f0fe0e44,PennController,23,0,fillers,NULL,PennController,26,_Trial_,End,1771258360449,1,filler,9,none,none,NULL
1771258452,c5c99444ae73f2131ac234b9f0fe0e44,PennController,27,0,fillers,NULL,PennController,30,_Trial_,Start,1771258360451,1,filler,13,none,none,NULL
1771258452,c5c99444ae73f2131ac234b9f0fe0e44,PennController,27,0,fillers,NULL,PennController,30,_Header_,Start,1771258360451,1,filler,13,none,none,NULL
1771258452,c5c99444ae73f2131ac234b9f0fe0e44,PennController,27,0,fillers,NULL,PennController,30,_Header_,End,1771258360702,1,filler,13,none,none,NULL
1771258452,c5c99444ae73f2131ac234b9f0fe0e44,PennController,27,0,fillers,NULL,Scale,R1A,Choice,Somewhat wrong,1771258361992,1,filler,13,none,none,NULL
1771258452,c5c99444ae73f2131ac234b9f0fe0e44,PennController,27,0,fillers,NULL,Scale,R2,Choice,Probably there is a correct answer,1771258362808,1,filler,13,none,none,NULL
1771258452,c5c99444ae73f2131ac234b9f0fe0e44,PennController,27,0,fillers,NULL,Scale,R3,Choice,Some of them would agree with me,1771258363204,1,filler,13,none,none,NULL
1771258452,c5c99444ae73f2131ac234b9f0fe0e44,PennController,27,0,fillers,NULL,Scale,R4,Choice,Somewhat easy,1771258363756,1,filler,13,none,none,NULL
1771258452,c5c99444ae73f2131ac234b9f0fe0e44,PennController,27,0,fillers,NULL,PennController,30,_Trial_,End,1771258365706,1,filler,13,none,none,NULL
1771258452,c5c99444ae73f2131ac234b9f0fe0e44,PennController,17,0,fillers,NULL,PennController,20,_Trial_,Start,1771258365707,1,filler,3,none,none,NULL
1771258452,c5c99444ae73f2131ac234b9f0fe0e44,PennController,17,0,fillers,NULL,PennController,20,_Header_,Start,1771258365707,1,filler,3,none,none,NULL
1771258452,c5c99444ae73f2131ac234b9f0fe0e44,PennController,17,0,fillers,NULL,PennController,20,_Header_,End,1771258365960,1,filler,3,none,none,NULL
1771258452,c5c99444ae73f2131ac234b9f0fe0e44,PennController,17,0,fillers,NULL,Scale,R1A,Choice,Right,1771258367184,1,filler,3,none,none,NULL
1771258452,c5c99444ae73f2131ac234b9f0fe0e44,PennController,17,0,fillers,NULL,Scale,R2,Choice,Maybe no correct answer,1771258367678,1,filler,3,none,none,NULL
1771258452,c5c99444ae73f2131ac234b9f0fe0e44,PennController,17,0,fillers,NULL,Scale,R3,Choice,Most of them would agree with me,1771258368206,1,filler,3,none,none,NULL
1771258452,c5c99444ae73f2131ac234b9f0fe0e44,PennController,17,0,fillers,NULL,Scale,R4,Choice,Somewhat easy,1771258369632,1,filler,3,none,none,NULL
1771258452,c5c99444ae73f2131ac234b9f0fe0e44,PennController,17,0,fillers,NULL,PennController,20,_Trial_,End,1771258371139,1,filler,3,none,none,NULL
1771258452,c5c99444ae73f2131ac234b9f0fe0e44,PennController,19,0,fillers,NULL,PennController,22,_Trial_,Start,1771258371140,1,filler,5,none,none,NULL
1771258452,c5c99444ae73f2131ac234b9f0fe0e44,PennController,19,0,fillers,NULL,PennController,22,_Header_,Start,1771258371140,1,filler,5,none,none,NULL
1771258452,c5c99444ae73f2131ac234b9f0fe0e44,PennController,19,0,fillers,NULL,PennController,22,_Header_,End,1771258371391,1,filler,5,none,none,NULL
1771258452,c5c99444ae73f2131ac234b9f0fe0e44,PennController,19,0,fillers,NULL,Scale,R1A,Choice,Right,1771258372001,1,filler,5,none,none,NULL
1771258452,c5c99444ae73f2131ac234b9f0fe0e44,PennController,19,0,fillers,NULL,Scale,R2,Choice,Maybe there is a correct answer,1771258372348,1,filler,5,none,none,NULL
1771258452,c5c99444ae73f2131ac234b9f0fe0e44,PennController,19,0,fillers,NULL,Scale,R3,Choice,Some of them would agree with me,1771258372893,1,filler,5,none,none,NULL
1771258452,c5c99444ae73f2131ac234b9f0fe0e44,PennController,19,0,fillers,NULL,Scale,R4,Choice,Very easy,1771258373457,1,filler,5,none,none,NULL
1771258452,c5c99444ae73f2131ac234b9f0fe0e44,PennController,19,0,fillers,NULL,PennController,22,_Trial_,End,1771258375981,1,filler,5,none,none,NULL
1771258452,c5c99444ae73f2131ac234b9f0fe0e44,PennController,28,0,fillers,NULL,PennController,31,_Trial_,Start,1771258375983,1,filler,14,none,none,NULL
1771258452,c5c99444ae73f2131ac234b9f0fe0e44,PennController,28,0,fillers,NULL,PennController,31,_Header_,Start,1771258375983,1,filler,14,none,none,NULL
1771258452,c5c99444ae73f2131ac234b9f0fe0e44,PennController,28,0,fillers,NULL,PennController,31,_Header_,End,1771258376234,1,filler,14,none,none,NULL
1771258452,c5c99444ae73f2131ac234b9f0fe0e44,PennController,28,0,fillers,NULL,Scale,R1A,Choice,Somewhat right,1771258376750,1,filler,14,none,none,NULL
1771258452,c5c99444ae73f2131ac234b9f0fe0e44,PennController,28,0,fillers,NULL,Scale,R2,Choice,Maybe no correct answer,1771258377105,1,filler,14,none,none,NULL
1771258452,c5c99444ae73f2131ac234b9f0fe0e44,PennController,28,0,fillers,NULL,Scale,R3,Choice,Most of them would disagree with me,1771258378060,1,filler,14,none,none,NULL
1771258452,c5c99444ae73f2131ac234b9f0fe0e44,PennController,28,0,fillers,NULL,Scale,R4,Choice,Somewhat easy,1771258379041,1,filler,14,none,none,NULL
1771258452,c5c99444ae73f2131ac234b9f0fe0e44,PennController,28,0,fillers,NULL,PennController,31,_Trial_,End,1771258380300,1,filler,14,none,none,NULL
1771258452,c5c99444ae73f2131ac234b9f0fe0e44,PennController,24,0,fillers,NULL,PennController,27,_Trial_,Start,1771258380302,1,filler,10,none,none,NULL
1771258452,c5c99444ae73f2131ac234b9f0fe0e44,PennController,24,0,fillers,NULL,PennController,27,_Header_,Start,1771258380302,1,filler,10,none,none,NULL
1771258452,c5c99444ae73f2131ac234b9f0fe0e44,PennController,24,0,fillers,NULL,PennController,27,_Header_,End,1771258380555,1,filler,10,none,none,NULL
1771258452,c5c99444ae73f2131ac234b9f0fe0e44,PennController,24,0,fillers,NULL,Scale,R1A,Choice,Somewhat right,1771258381065,1,filler,10,none,none,NULL
1771258452,c5c99444ae73f2131ac234b9f0fe0e44,PennController,24,0,fillers,NULL,Scale,R2,Choice,Probably there is a correct answer,1771258381452,1,filler,10,none,none,NULL
1771258452,c5c99444ae73f2131ac234b9f0fe0e44,PennController,24,0,fillers,NULL,Scale,R3,Choice,Some of them would disagree with me,1771258382029,1,filler,10,none,none,NULL
1771258452,c5c99444ae73f2131ac234b9f0fe0e44,PennController,24,0,fillers,NULL,Scale,R4,Choice,Somewhat easy,1771258382864,1,filler,10,none,none,NULL
1771258452,c5c99444ae73f2131ac234b9f0fe0e44,PennController,24,0,fillers,NULL,PennController,27,_Trial_,End,1771258385175,1,filler,10,none,none,NULL
1771258452,c5c99444ae73f2131ac234b9f0fe0e44,PennController,25,0,fillers,NULL,PennController,28,_Trial_,Start,1771258385177,1,filler,11,none,none,NULL
1771258452,c5c99444ae73f2131ac234b9f0fe0e44,PennController,25,0,fillers,NULL,PennController,28,_Header_,Start,1771258385177,1,filler,11,none,none,NULL
1771258452,c5c99444ae73f2131ac234b9f0fe0e44,PennController,25,0,fillers,NULL,PennController,28,_Header_,End,1771258385427,1,filler,11,none,none,NULL
1771258452,c5c99444ae73f2131ac234b9f0fe0e44,PennController,25,0,fillers,NULL,Scale,R1A,Choice,Somewhat right,1771258386827,1,filler,11,none,none,NULL
1771258452,c5c99444ae73f2131ac234b9f0fe0e44,PennController,25,0,fillers,NULL,Scale,R2,Choice,Maybe no correct answer,1771258387296,1,filler,11,none,none,NULL
1771258452,c5c99444ae73f2131ac234b9f0fe0e44,PennController,25,0,fillers,NULL,Scale,R3,Choice,Some of them would disagree with me,1771258388257,1,filler,11,none,none,NULL
1771258452,c5c99444ae73f2131ac234b9f0fe0e44,PennController,25,0,fillers,NULL,Scale,R4,Choice,Very easy,1771258388964,1,filler,11,none,none,NULL
1771258452,c5c99444ae73f2131ac234b9f0fe0e44,PennController,25,0,fillers,NULL,PennController,28,_Trial_,End,1771258390500,1,filler,11,none,none,NULL
# 13. Comments.
1771258452,c5c99444ae73f2131ac234b9f0fe0e44,PennController,42,0,instructions2,NULL,PennController,5,_Trial_,Start,1771258390502,NULL
1771258452,c5c99444ae73f2131ac234b9f0fe0e44,PennController,42,0,instructions2,NULL,PennController,5,_Header_,Start,1771258390502,NULL
1771258452,c5c99444ae73f2131ac234b9f0fe0e44,PennController,42,0,instructions2,NULL,PennController,5,_Header_,End,1771258390765,NULL
1771258452,c5c99444ae73f2131ac234b9f0fe0e44,PennController,42,0,instructions2,NULL,PennController,5,_Trial_,End,1771258392835,NULL
# 13. Phase.
# 14. TrialType.
# 15. Number.
# 16. Valence.
# 17. Group.
# 18. Comments.
1771258452,c5c99444ae73f2131ac234b9f0fe0e44,PennController,36,0,test_phase2,NULL,PennController,39,_Trial_,Start,1771258392836,2,test,6,Neg,A,NULL
1771258452,c5c99444ae73f2131ac234b9f0fe0e44,PennController,36,0,test_phase2,NULL,PennController,39,_Header_,Start,1771258392836,2,test,6,Neg,A,NULL
1771258452,c5c99444ae73f2131ac234b9f0fe0e44,PennController,36,0,test_phase2,NULL,PennController,39,_Header_,End,1771258393089,2,test,6,Neg,A,NULL
1771258452,c5c99444ae73f2131ac234b9f0fe0e44,PennController,36,0,test_phase2,NULL,Scale,R5,Choice,The other person is likely mistaken,1771258393949,2,test,6,Neg,A,NULL
1771258452,c5c99444ae73f2131ac234b9f0fe0e44,PennController,36,0,test_phase2,NULL,Scale,R6,Choice,Mildly comfortable,1771258394443,2,test,6,Neg,A,NULL
1771258452,c5c99444ae73f2131ac234b9f0fe0e44,PennController,36,0,test_phase2,NULL,PennController,39,_Trial_,End,1771258395528,2,test,6,Neg,A,NULL
1771258452,c5c99444ae73f2131ac234b9f0fe0e44,PennController,31,0,test_phase2,NULL,PennController,34,_Trial_,Start,1771258395529,2,test,5,Pos,A,NULL
1771258452,c5c99444ae73f2131ac234b9f0fe0e44,PennController,31,0,test_phase2,NULL,PennController,34,_Header_,Start,1771258395529,2,test,5,Pos,A,NULL
1771258452,c5c99444ae73f2131ac234b9f0fe0e44,PennController,31,0,test_phase2,NULL,PennController,34,_Header_,End,1771258395779,2,test,5,Pos,A,NULL
1771258452,c5c99444ae73f2131ac234b9f0fe0e44,PennController,31,0,test_phase2,NULL,Scale,R5,Choice,Probably neither of us needs to be mistaken,1771258396762,2,test,5,Pos,A,NULL
1771258452,c5c99444ae73f2131ac234b9f0fe0e44,PennController,31,0,test_phase2,NULL,Scale,R6,Choice,Mildly comfortable,1771258398787,2,test,5,Pos,A,NULL
1771258452,c5c99444ae73f2131ac234b9f0fe0e44,PennController,31,0,test_phase2,NULL,PennController,34,_Trial_,End,1771258399959,2,test,5,Pos,A,NULL
1771258452,c5c99444ae73f2131ac234b9f0fe0e44,PennController,35,0,test_phase2,NULL,PennController,38,_Trial_,Start,1771258399962,2,test,4,Neg,A,NULL
1771258452,c5c99444ae73f2131ac234b9f0fe0e44,PennController,35,0,test_phase2,NULL,PennController,38,_Header_,Start,1771258399962,2,test,4,Neg,A,NULL
1771258452,c5c99444ae73f2131ac234b9f0fe0e44,PennController,35,0,test_phase2,NULL,PennController,38,_Header_,End,1771258400213,2,test,4,Neg,A,NULL
1771258452,c5c99444ae73f2131ac234b9f0fe0e44,PennController,35,0,test_phase2,NULL,Scale,R5,Choice,The other person is maybe mistaken,1771258401061,2,test,4,Neg,A,NULL
1771258452,c5c99444ae73f2131ac234b9f0fe0e44,PennController,35,0,test_phase2,NULL,Scale,R6,Choice,Very comfortable,1771258401618,2,test,4,Neg,A,NULL
1771258452,c5c99444ae73f2131ac234b9f0fe0e44,PennController,35,0,test_phase2,NULL,PennController,38,_Trial_,End,1771258402666,2,test,4,Neg,A,NULL
1771258452,c5c99444ae73f2131ac234b9f0fe0e44,PennController,33,0,test_phase2,NULL,PennController,36,_Trial_,Start,1771258402668,2,test,9,Pos,A,NULL
1771258452,c5c99444ae73f2131ac234b9f0fe0e44,PennController,33,0,test_phase2,NULL,PennController,36,_Header_,Start,1771258402668,2,test,9,Pos,A,NULL
1771258452,c5c99444ae73f2131ac234b9f0fe0e44,PennController,33,0,test_phase2,NULL,PennController,36,_Header_,End,1771258402918,2,test,9,Pos,A,NULL
1771258452,c5c99444ae73f2131ac234b9f0fe0e44,PennController,33,0,test_phase2,NULL,Scale,R5,Choice,Maybe neither of us needs to be mistaken,1771258403885,2,test,9,Pos,A,NULL
1771258452,c5c99444ae73f2131ac234b9f0fe0e44,PennController,33,0,test_phase2,NULL,Scale,R6,Choice,Mildly uncomfortable,1771258404317,2,test,9,Pos,A,NULL
1771258452,c5c99444ae73f2131ac234b9f0fe0e44,PennController,33,0,test_phase2,NULL,PennController,36,_Trial_,End,1771258405127,2,test,9,Pos,A,NULL
1771258452,c5c99444ae73f2131ac234b9f0fe0e44,PennController,37,0,test_phase2,NULL,PennController,40,_Trial_,Start,1771258405129,2,test,8,Neg,A,NULL
1771258452,c5c99444ae73f2131ac234b9f0fe0e44,PennController,37,0,test_phase2,NULL,PennController,40,_Header_,Start,1771258405129,2,test,8,Neg,A,NULL
1771258452,c5c99444ae73f2131ac234b9f0fe0e44,PennController,37,0,test_phase2,NULL,PennController,40,_Header_,End,1771258405379,2,test,8,Neg,A,NULL
1771258452,c5c99444ae73f2131ac234b9f0fe0e44,PennController,37,0,test_phase2,NULL,Scale,R5,Choice,The other person is maybe mistaken,1771258406015,2,test,8,Neg,A,NULL
1771258452,c5c99444ae73f2131ac234b9f0fe0e44,PennController,37,0,test_phase2,NULL,Scale,R6,Choice,Mildly uncomfortable,1771258406634,2,test,8,Neg,A,NULL
1771258452,c5c99444ae73f2131ac234b9f0fe0e44,PennController,37,0,test_phase2,NULL,PennController,40,_Trial_,End,1771258407709,2,test,8,Neg,A,NULL
1771258452,c5c99444ae73f2131ac234b9f0fe0e44,PennController,30,0,test_phase2,NULL,PennController,33,_Trial_,Start,1771258407711,2,test,3,Pos,A,NULL
1771258452,c5c99444ae73f2131ac234b9f0fe0e44,PennController,30,0,test_phase2,NULL,PennController,33,_Header_,Start,1771258407711,2,test,3,Pos,A,NULL
1771258452,c5c99444ae73f2131ac234b9f0fe0e44,PennController,30,0,test_phase2,NULL,PennController,33,_Header_,End,1771258407964,2,test,3,Pos,A,NULL
1771258452,c5c99444ae73f2131ac234b9f0fe0e44,PennController,30,0,test_phase2,NULL,Scale,R5,Choice,The other person is maybe mistaken,1771258408567,2,test,3,Pos,A,NULL
1771258452,c5c99444ae73f2131ac234b9f0fe0e44,PennController,30,0,test_phase2,NULL,Scale,R6,Choice,Very uncomfortable,1771258409069,2,test,3,Pos,A,NULL
1771258452,c5c99444ae73f2131ac234b9f0fe0e44,PennController,30,0,test_phase2,NULL,PennController,33,_Trial_,End,1771258413474,2,test,3,Pos,A,NULL
1771258452,c5c99444ae73f2131ac234b9f0fe0e44,PennController,38,0,test_phase2,NULL,PennController,41,_Trial_,Start,1771258413475,2,test,10,Neg,A,NULL
1771258452,c5c99444ae73f2131ac234b9f0fe0e44,PennController,38,0,test_phase2,NULL,PennController,41,_Header_,Start,1771258413475,2,test,10,Neg,A,NULL
1771258452,c5c99444ae73f2131ac234b9f0fe0e44,PennController,38,0,test_phase2,NULL,PennController,41,_Header_,End,1771258413727,2,test,10,Neg,A,NULL
1771258452,c5c99444ae73f2131ac234b9f0fe0e44,PennController,38,0,test_phase2,NULL,Scale,R5,Choice,Maybe neither of us needs to be mistaken,1771258414146,2,test,10,Neg,A,NULL
1771258452,c5c99444ae73f2131ac234b9f0fe0e44,PennController,38,0,test_phase2,NULL,Scale,R6,Choice,Very uncomfortable,1771258414557,2,test,10,Neg,A,NULL
1771258452,c5c99444ae73f2131ac234b9f0fe0e44,PennController,38,0,test_phase2,NULL,PennController,41,_Trial_,End,1771258415590,2,test,10,Neg,A,NULL
1771258452,c5c99444ae73f2131ac234b9f0fe0e44,PennController,29,0,test_phase2,NULL,PennController,32,_Trial_,Start,1771258415592,2,test,1,Pos,A,NULL
1771258452,c5c99444ae73f2131ac234b9f0fe0e44,PennController,29,0,test_phase2,NULL,PennController,32,_Header_,Start,1771258415592,2,test,1,Pos,A,NULL
1771258452,c5c99444ae73f2131ac234b9f0fe0e44,PennController,29,0,test_phase2,NULL,PennController,32,_Header_,End,1771258415847,2,test,1,Pos,A,NULL
1771258452,c5c99444ae73f2131ac234b9f0fe0e44,PennController,29,0,test_phase2,NULL,Scale,R5,Choice,The other person is maybe mistaken,1771258418190,2,test,1,Pos,A,NULL
1771258452,c5c99444ae73f2131ac234b9f0fe0e44,PennController,29,0,test_phase2,NULL,Scale,R6,Choice,Extremely uncomfortable,1771258418585,2,test,1,Pos,A,NULL
1771258452,c5c99444ae73f2131ac234b9f0fe0e44,PennController,29,0,test_phase2,NULL,PennController,32,_Trial_,End,1771258419626,2,test,1,Pos,A,NULL
1771258452,c5c99444ae73f2131ac234b9f0fe0e44,PennController,34,0,test_phase2,NULL,PennController,37,_Trial_,Start,1771258419627,2,test,2,Neg,A,NULL
1771258452,c5c99444ae73f2131ac234b9f0fe0e44,PennController,34,0,test_phase2,NULL,PennController,37,_Header_,Start,1771258419627,2,test,2,Neg,A,NULL
1771258452,c5c99444ae73f2131ac234b9f0fe0e44,PennController,34,0,test_phase2,NULL,PennController,37,_Header_,End,1771258419877,2,test,2,Neg,A,NULL
1771258452,c5c99444ae73f2131ac234b9f0fe0e44,PennController,34,0,test_phase2,NULL,Scale,R5,Choice,The other person is likely mistaken,1771258420386,2,test,2,Neg,A,NULL
1771258452,c5c99444ae73f2131ac234b9f0fe0e44,PennController,34,0,test_phase2,NULL,Scale,R6,Choice,Mildly uncomfortable,1771258420765,2,test,2,Neg,A,NULL
1771258452,c5c99444ae73f2131ac234b9f0fe0e44,PennController,34,0,test_phase2,NULL,PennController,37,_Trial_,End,1771258421696,2,test,2,Neg,A,NULL
1771258452,c5c99444ae73f2131ac234b9f0fe0e44,PennController,32,0,test_phase2,NULL,PennController,35,_Trial_,Start,1771258421697,2,test,7,Pos,A,NULL
1771258452,c5c99444ae73f2131ac234b9f0fe0e44,PennController,32,0,test_phase2,NULL,PennController,35,_Header_,Start,1771258421697,2,test,7,Pos,A,NULL
1771258452,c5c99444ae73f2131ac234b9f0fe0e44,PennController,32,0,test_phase2,NULL,PennController,35,_Header_,End,1771258421950,2,test,7,Pos,A,NULL
1771258452,c5c99444ae73f2131ac234b9f0fe0e44,PennController,32,0,test_phase2,NULL,Scale,R5,Choice,Maybe neither of us needs to be mistaken,1771258422406,2,test,7,Pos,A,NULL
1771258452,c5c99444ae73f2131ac234b9f0fe0e44,PennController,32,0,test_phase2,NULL,Scale,R6,Choice,Mildly comfortable,1771258422785,2,test,7,Pos,A,NULL
1771258452,c5c99444ae73f2131ac234b9f0fe0e44,PennController,32,0,test_phase2,NULL,PennController,35,_Trial_,End,1771258423564,2,test,7,Pos,A,NULL
# 13. Comments.
1771258452,c5c99444ae73f2131ac234b9f0fe0e44,PennController,40,0,demo,NULL,PennController,3,_Trial_,Start,1771258423565,NULL
1771258452,c5c99444ae73f2131ac234b9f0fe0e44,PennController,40,0,demo,NULL,PennController,3,_Header_,Start,1771258423565,NULL
1771258452,c5c99444ae73f2131ac234b9f0fe0e44,PennController,40,0,demo,NULL,PennController,3,_Header_,End,1771258423818,NULL
1771258452,c5c99444ae73f2131ac234b9f0fe0e44,PennController,40,0,demo,NULL,Html,bg_form,country,69,1771258451753,text input
1771258452,c5c99444ae73f2131ac234b9f0fe0e44,PennController,40,0,demo,NULL,Html,bg_form,lang1,69,1771258451753,text input
1771258452,c5c99444ae73f2131ac234b9f0fe0e44,PennController,40,0,demo,NULL,Html,bg_form,lang2,,1771258451753,text input
1771258452,c5c99444ae73f2131ac234b9f0fe0e44,PennController,40,0,demo,NULL,Html,bg_form,lang3,,1771258451753,text input
1771258452,c5c99444ae73f2131ac234b9f0fe0e44,PennController,40,0,demo,NULL,Html,bg_form,moral_reason,unchecked,1771258451753,checkbox
1771258452,c5c99444ae73f2131ac234b9f0fe0e44,PennController,40,0,demo,NULL,Html,bg_form,moral_reason,unchecked,1771258451753,checkbox
1771258452,c5c99444ae73f2131ac234b9f0fe0e44,PennController,40,0,demo,NULL,Html,bg_form,moral_reason,checked,1771258451753,checkbox
1771258452,c5c99444ae73f2131ac234b9f0fe0e44,PennController,40,0,demo,NULL,Html,bg_form,moral_reason,unchecked,1771258451753,checkbox
1771258452,c5c99444ae73f2131ac234b9f0fe0e44,PennController,40,0,demo,NULL,Html,bg_form,religion,unchecked,1771258451753,checkbox
1771258452,c5c99444ae73f2131ac234b9f0fe0e44,PennController,40,0,demo,NULL,Html,bg_form,religion,unchecked,1771258451753,checkbox
1771258452,c5c99444ae73f2131ac234b9f0fe0e44,PennController,40,0,demo,NULL,Html,bg_form,religion,unchecked,1771258451753,checkbox
1771258452,c5c99444ae73f2131ac234b9f0fe0e44,PennController,40,0,demo,NULL,Html,bg_form,religion,checked,1771258451753,checkbox
1771258452,c5c99444ae73f2131ac234b9f0fe0e44,PennController,40,0,demo,NULL,Html,bg_form,religion,unchecked,1771258451753,checkbox
1771258452,c5c99444ae73f2131ac234b9f0fe0e44,PennController,40,0,demo,NULL,Html,bg_form,religion,unchecked,1771258451753,checkbox
1771258452,c5c99444ae73f2131ac234b9f0fe0e44,PennController,40,0,demo,NULL,Html,bg_form,religion,unchecked,1771258451753,checkbox
1771258452,c5c99444ae73f2131ac234b9f0fe0e44,PennController,40,0,demo,NULL,Html,bg_form,religion,unchecked,1771258451753,checkbox
1771258452,c5c99444ae73f2131ac234b9f0fe0e44,PennController,40,0,demo,NULL,Html,bg_form,religion,unchecked,1771258451753,checkbox
1771258452,c5c99444ae73f2131ac234b9f0fe0e44,PennController,40,0,demo,NULL,Html,bg_form,religion,unchecked,1771258451753,checkbox
1771258452,c5c99444ae73f2131ac234b9f0fe0e44,PennController,40,0,demo,NULL,Html,bg_form,lang4,unchecked,1771258451753,checkbox
1771258452,c5c99444ae73f2131ac234b9f0fe0e44,PennController,40,0,demo,NULL,Html,bg_form,rightwrong,yes,1771258451753,radio button
1771258452,c5c99444ae73f2131ac234b9f0fe0e44,PennController,40,0,demo,NULL,Html,bg_form,gender,nonbinary,1771258451753,radio button
1771258452,c5c99444ae73f2131ac234b9f0fe0e44,PennController,40,0,demo,NULL,PennController,3,_Trial_,End,1771258451755,NULL
#
# Results on Wed, 18 Feb 2026 12:50:02 GMT
# USER AGENT: Mozilla/5.0 (Macintosh; Intel Mac OS X 10_15_7) AppleWebKit/605.1.15 (KHTML, like Gecko) Version/26.3 Safari/605.1.15
# Design number was non-random = 1
#
# Columns below this comment are as follows:
# 1. Results reception time.
# 2. MD5 hash of participant's IP address.
# 3. Controller name.
# 4. Order number of item.
# 5. Inner element number.
# 6. Label.
# 7. Latin Square Group.
# 8. PennElementType.
# 9. PennElementName.
# 10. Parameter.
# 11. Value.
# 12. EventTime.
# 13. Comments.
1771419002,2af266c8082a4dd6b56e83725485da27,PennController,0,0,welcome,NULL,PennController,0,_Header_,Start,1771418208210,NULL
1771419002,2af266c8082a4dd6b56e83725485da27,PennController,0,0,welcome,NULL,PennController,0,_Trial_,Start,1771418208210,NULL
1771419002,2af266c8082a4dd6b56e83725485da27,PennController,0,0,welcome,NULL,PennController,0,_Header_,End,1771418208460,NULL
1771419002,2af266c8082a4dd6b56e83725485da27,PennController,0,0,welcome,NULL,PennController,0,_Trial_,End,1771418212793,NULL
1771419002,2af266c8082a4dd6b56e83725485da27,PennController,39,0,consent,NULL,PennController,2,_Header_,Start,1771418212795,NULL
1771419002,2af266c8082a4dd6b56e83725485da27,PennController,39,0,consent,NULL,PennController,2,_Trial_,Start,1771418212795,NULL
1771419002,2af266c8082a4dd6b56e83725485da27,PennController,39,0,consent,NULL,PennController,2,_Header_,End,1771418213046,NULL
1771419002,2af266c8082a4dd6b56e83725485da27,PennController,39,0,consent,NULL,PennController,2,_Trial_,End,1771418222292,NULL
1771419002,2af266c8082a4dd6b56e83725485da27,PennController,41,0,instructions1,NULL,PennController,4,_Header_,Start,1771418222293,NULL
1771419002,2af266c8082a4dd6b56e83725485da27,PennController,41,0,instructions1,NULL,PennController,4,_Trial_,Start,1771418222293,NULL
1771419002,2af266c8082a4dd6b56e83725485da27,PennController,41,0,instructions1,NULL,PennController,4,_Header_,End,1771418222543,NULL
1771419002,2af266c8082a4dd6b56e83725485da27,PennController,41,0,instructions1,NULL,PennController,4,_Trial_,End,1771418245407,NULL
# 13. TrialType.
# 14. Number.
# 15. Valence.
# 16. Group.
# 17. Comments.
1771419002,2af266c8082a4dd6b56e83725485da27,PennController,3,0,practice,NULL,PennController,6,_Header_,Start,1771418245408,Practice,1,none,none,NULL
1771419002,2af266c8082a4dd6b56e83725485da27,PennController,3,0,practice,NULL,PennController,6,_Trial_,Start,1771418245408,Practice,1,none,none,NULL
1771419002,2af266c8082a4dd6b56e83725485da27,PennController,3,0,practice,NULL,PennController,6,_Header_,End,1771418245662,Practice,1,none,none,NULL
1771419002,2af266c8082a4dd6b56e83725485da27,PennController,3,0,practice,NULL,Scale,R1A,Choice,Wrong,1771418253906,Practice,1,none,none,NULL
1771419002,2af266c8082a4dd6b56e83725485da27,PennController,3,0,practice,NULL,Scale,R2,Choice,Probably there is a correct answer,1771418257489,Practice,1,none,none,NULL
1771419002,2af266c8082a4dd6b56e83725485da27,PennController,3,0,practice,NULL,Scale,R3,Choice,Most of them would agree with me,1771418261190,Practice,1,none,none,NULL
1771419002,2af266c8082a4dd6b56e83725485da27,PennController,3,0,practice,NULL,Scale,R4,Choice,Somewhat easy,1771418263358,Practice,1,none,none,NULL
1771419002,2af266c8082a4dd6b56e83725485da27,PennController,3,0,practice,NULL,PennController,6,_Trial_,End,1771418264973,Practice,1,none,none,NULL
1771419002,2af266c8082a4dd6b56e83725485da27,PennController,4,0,practice,NULL,PennController,7,_Header_,Start,1771418264974,Practice,2,none,none,NULL
1771419002,2af266c8082a4dd6b56e83725485da27,PennController,4,0,practice,NULL,PennController,7,_Trial_,Start,1771418264974,Practice,2,none,none,NULL
1771419002,2af266c8082a4dd6b56e83725485da27,PennController,4,0,practice,NULL,PennController,7,_Header_,End,1771418265225,Practice,2,none,none,NULL
1771419002,2af266c8082a4dd6b56e83725485da27,PennController,4,0,practice,NULL,Scale,R1A,Choice,Somewhat wrong,1771418272290,Practice,2,none,none,NULL
1771419002,2af266c8082a4dd6b56e83725485da27,PennController,4,0,practice,NULL,Scale,R2,Choice,Probably no correct answer,1771418274689,Practice,2,none,none,NULL
1771419002,2af266c8082a4dd6b56e83725485da27,PennController,4,0,practice,NULL,Scale,R3,Choice,Some of them would agree with me,1771418280656,Practice,2,none,none,NULL
1771419002,2af266c8082a4dd6b56e83725485da27,PennController,4,0,practice,NULL,Scale,R4,Choice,A little difficult,1771418282723,Practice,2,none,none,NULL
1771419002,2af266c8082a4dd6b56e83725485da27,PennController,4,0,practice,NULL,PennController,7,_Trial_,End,1771418284178,Practice,2,none,none,NULL
# 13. Phase.
# 14. TrialType.
# 15. Number.
# 16. Valence.
# 17. Group.
# 18. Comments.
1771419002,2af266c8082a4dd6b56e83725485da27,PennController,11,0,test_phase1,NULL,PennController,14,_Trial_,Start,1771418284178,1,test,3,Neg,B,NULL
1771419002,2af266c8082a4dd6b56e83725485da27,PennController,11,0,test_phase1,NULL,PennController,14,_Header_,Start,1771418284179,1,test,3,Neg,B,NULL
1771419002,2af266c8082a4dd6b56e83725485da27,PennController,11,0,test_phase1,NULL,PennController,14,_Header_,End,1771418284429,1,test,3,Neg,B,NULL
1771419002,2af266c8082a4dd6b56e83725485da27,PennController,11,0,test_phase1,NULL,Scale,R1A,Choice,Wrong,1771418300375,1,test,3,Neg,B,NULL
1771419002,2af266c8082a4dd6b56e83725485da27,PennController,11,0,test_phase1,NULL,Scale,R2,Choice,Probably there is a correct answer,1771418303322,1,test,3,Neg,B,NULL
1771419002,2af266c8082a4dd6b56e83725485da27,PennController,11,0,test_phase1,NULL,Scale,R3,Choice,Some of them would agree with me,1771418306240,1,test,3,Neg,B,NULL
1771419002,2af266c8082a4dd6b56e83725485da27,PennController,11,0,test_phase1,NULL,Scale,R4,Choice,Somewhat easy,1771418308124,1,test,3,Neg,B,NULL
1771419002,2af266c8082a4dd6b56e83725485da27,PennController,11,0,test_phase1,NULL,PennController,14,_Trial_,End,1771418309442,1,test,3,Neg,B,NULL
1771419002,2af266c8082a4dd6b56e83725485da27,PennController,6,0,test_phase1,NULL,PennController,9,_Header_,Start,1771418309443,1,test,4,Pos,B,NULL
1771419002,2af266c8082a4dd6b56e83725485da27,PennController,6,0,test_phase1,NULL,PennController,9,_Trial_,Start,1771418309443,1,test,4,Pos,B,NULL
1771419002,2af266c8082a4dd6b56e83725485da27,PennController,6,0,test_phase1,NULL,PennController,9,_Header_,End,1771418309693,1,test,4,Pos,B,NULL
1771419002,2af266c8082a4dd6b56e83725485da27,PennController,6,0,test_phase1,NULL,Scale,R1A,Choice,Somewhat wrong,1771418319124,1,test,4,Pos,B,NULL
1771419002,2af266c8082a4dd6b56e83725485da27,PennController,6,0,test_phase1,NULL,Scale,R2,Choice,Probably there is a correct answer,1771418322389,1,test,4,Pos,B,NULL
1771419002,2af266c8082a4dd6b56e83725485da27,PennController,6,0,test_phase1,NULL,Scale,R3,Choice,Some of them would disagree with me,1771418324872,1,test,4,Pos,B,NULL
1771419002,2af266c8082a4dd6b56e83725485da27,PennController,6,0,test_phase1,NULL,Scale,R4,Choice,A little easy,1771418327073,1,test,4,Pos,B,NULL
1771419002,2af266c8082a4dd6b56e83725485da27,PennController,6,0,test_phase1,NULL,PennController,9,_Trial_,End,1771418328408,1,test,4,Pos,B,NULL
1771419002,2af266c8082a4dd6b56e83725485da27,PennController,14,0,test_phase1,NULL,PennController,17,_Header_,Start,1771418328409,1,test,9,Neg,B,NULL
1771419002,2af266c8082a4dd6b56e83725485da27,PennController,14,0,test_phase1,NULL,PennController,17,_Trial_,Start,1771418328409,1,test,9,Neg,B,NULL
1771419002,2af266c8082a4dd6b56e83725485da27,PennController,14,0,test_phase1,NULL,PennController,17,_Header_,End,1771418328663,1,test,9,Neg,B,NULL
1771419002,2af266c8082a4dd6b56e83725485da27,PennController,14,0,test_phase1,NULL,Scale,R1A,Choice,Very wrong,1771418340255,1,test,9,Neg,B,NULL
1771419002,2af266c8082a4dd6b56e83725485da27,PennController,14,0,test_phase1,NULL,Scale,R2,Choice,Definitely there is a correct answer,1771418342373,1,test,9,Neg,B,NULL
1771419002,2af266c8082a4dd6b56e83725485da27,PennController,14,0,test_phase1,NULL,Scale,R3,Choice,Most of them would agree with me,1771418345223,1,test,9,Neg,B,NULL
1771419002,2af266c8082a4dd6b56e83725485da27,PennController,14,0,test_phase1,NULL,Scale,R4,Choice,Very easy,1771418347156,1,test,9,Neg,B,NULL
1771419002,2af266c8082a4dd6b56e83725485da27,PennController,14,0,test_phase1,NULL,PennController,17,_Trial_,End,1771418348525,1,test,9,Neg,B,NULL
1771419002,2af266c8082a4dd6b56e83725485da27,PennController,5,0,test_phase1,NULL,PennController,8,_Header_,Start,1771418348526,1,test,2,Pos,B,NULL
1771419002,2af266c8082a4dd6b56e83725485da27,PennController,5,0,test_phase1,NULL,PennController,8,_Trial_,Start,1771418348526,1,test,2,Pos,B,NULL
1771419002,2af266c8082a4dd6b56e83725485da27,PennController,5,0,test_phase1,NULL,PennController,8,_Header_,End,1771418348778,1,test,2,Pos,B,NULL
1771419002,2af266c8082a4dd6b56e83725485da27,PennController,5,0,test_phase1,NULL,Scale,R1A,Choice,Somewhat wrong,1771418387739,1,test,2,Pos,B,NULL
1771419002,2af266c8082a4dd6b56e83725485da27,PennController,5,0,test_phase1,NULL,Scale,R2,Choice,Maybe there is a correct answer,1771418389922,1,test,2,Pos,B,NULL
1771419002,2af266c8082a4dd6b56e83725485da27,PennController,5,0,test_phase1,NULL,Scale,R3,Choice,Some of them would agree with me,1771418392089,1,test,2,Pos,B,NULL
1771419002,2af266c8082a4dd6b56e83725485da27,PennController,5,0,test_phase1,NULL,Scale,R4,Choice,A little difficult,1771418393723,1,test,2,Pos,B,NULL
1771419002,2af266c8082a4dd6b56e83725485da27,PennController,5,0,test_phase1,NULL,PennController,8,_Trial_,End,1771418394843,1,test,2,Pos,B,NULL
1771419002,2af266c8082a4dd6b56e83725485da27,PennController,7,0,test_phase1,NULL,PennController,10,_Header_,Start,1771418394844,1,test,6,Pos,B,NULL
1771419002,2af266c8082a4dd6b56e83725485da27,PennController,7,0,test_phase1,NULL,PennController,10,_Trial_,Start,1771418394844,1,test,6,Pos,B,NULL
1771419002,2af266c8082a4dd6b56e83725485da27,PennController,7,0,test_phase1,NULL,PennController,10,_Header_,End,1771418395095,1,test,6,Pos,B,NULL
1771419002,2af266c8082a4dd6b56e83725485da27,PennController,7,0,test_phase1,NULL,Scale,R1A,Choice,Right,1771418403539,1,test,6,Pos,B,NULL
1771419002,2af266c8082a4dd6b56e83725485da27,PennController,7,0,test_phase1,NULL,Scale,R2,Choice,Probably there is a correct answer,1771418405838,1,test,6,Pos,B,NULL
1771419002,2af266c8082a4dd6b56e83725485da27,PennController,7,0,test_phase1,NULL,Scale,R3,Choice,Most of them would agree with me,1771418408357,1,test,6,Pos,B,NULL
1771419002,2af266c8082a4dd6b56e83725485da27,PennController,7,0,test_phase1,NULL,Scale,R4,Choice,A little easy,1771418410224,1,test,6,Pos,B,NULL
1771419002,2af266c8082a4dd6b56e83725485da27,PennController,7,0,test_phase1,NULL,PennController,10,_Trial_,End,1771418411461,1,test,6,Pos,B,NULL
1771419002,2af266c8082a4dd6b56e83725485da27,PennController,12,0,test_phase1,NULL,PennController,15,_Header_,Start,1771418411461,1,test,5,Neg,B,NULL
1771419002,2af266c8082a4dd6b56e83725485da27,PennController,12,0,test_phase1,NULL,PennController,15,_Trial_,Start,1771418411461,1,test,5,Neg,B,NULL
1771419002,2af266c8082a4dd6b56e83725485da27,PennController,12,0,test_phase1,NULL,PennController,15,_Header_,End,1771418411715,1,test,5,Neg,B,NULL
1771419002,2af266c8082a4dd6b56e83725485da27,PennController,12,0,test_phase1,NULL,Scale,R1A,Choice,Wrong,1771418429038,1,test,5,Neg,B,NULL
1771419002,2af266c8082a4dd6b56e83725485da27,PennController,12,0,test_phase1,NULL,Scale,R2,Choice,Probably there is a correct answer,1771418431708,1,test,5,Neg,B,NULL
1771419002,2af266c8082a4dd6b56e83725485da27,PennController,12,0,test_phase1,NULL,Scale,R3,Choice,Some of them would agree with me,1771418434490,1,test,5,Neg,B,NULL
1771419002,2af266c8082a4dd6b56e83725485da27,PennController,12,0,test_phase1,NULL,Scale,R4,Choice,Somewhat easy,1771418437323,1,test,5,Neg,B,NULL
1771419002,2af266c8082a4dd6b56e83725485da27,PennController,12,0,test_phase1,NULL,PennController,15,_Trial_,End,1771418439175,1,test,5,Neg,B,NULL
1771419002,2af266c8082a4dd6b56e83725485da27,PennController,13,0,test_phase1,NULL,PennController,16,_Header_,Start,1771418439176,1,test,7,Neg,B,NULL
1771419002,2af266c8082a4dd6b56e83725485da27,PennController,13,0,test_phase1,NULL,PennController,16,_Trial_,Start,1771418439176,1,test,7,Neg,B,NULL
1771419002,2af266c8082a4dd6b56e83725485da27,PennController,13,0,test_phase1,NULL,PennController,16,_Header_,End,1771418439428,1,test,7,Neg,B,NULL
1771419002,2af266c8082a4dd6b56e83725485da27,PennController,13,0,test_phase1,NULL,Scale,R1A,Choice,Somewhat right,1771418456637,1,test,7,Neg,B,NULL
1771419002,2af266c8082a4dd6b56e83725485da27,PennController,13,0,test_phase1,NULL,Scale,R2,Choice,Maybe no correct answer,1771418459307,1,test,7,Neg,B,NULL
1771419002,2af266c8082a4dd6b56e83725485da27,PennController,13,0,test_phase1,NULL,Scale,R3,Choice,Most of them would agree with me,1771418461890,1,test,7,Neg,B,NULL
1771419002,2af266c8082a4dd6b56e83725485da27,PennController,13,0,test_phase1,NULL,Scale,R4,Choice,A little easy,1771418463588,1,test,7,Neg,B,NULL
1771419002,2af266c8082a4dd6b56e83725485da27,PennController,13,0,test_phase1,NULL,PennController,16,_Trial_,End,1771418465275,1,test,7,Neg,B,NULL
1771419002,2af266c8082a4dd6b56e83725485da27,PennController,9,0,test_phase1,NULL,PennController,12,_Header_,Start,1771418465277,1,test,10,Pos,B,NULL
1771419002,2af266c8082a4dd6b56e83725485da27,PennController,9,0,test_phase1,NULL,PennController,12,_Trial_,Start,1771418465277,1,test,10,Pos,B,NULL
1771419002,2af266c8082a4dd6b56e83725485da27,PennController,9,0,test_phase1,NULL,PennController,12,_Header_,End,1771418465527,1,test,10,Pos,B,NULL
1771419002,2af266c8082a4dd6b56e83725485da27,PennController,9,0,test_phase1,NULL,Scale,R1A,Choice,Somewhat right,1771418489906,1,test,10,Pos,B,NULL
1771419002,2af266c8082a4dd6b56e83725485da27,PennController,9,0,test_phase1,NULL,Scale,R2,Choice,Maybe no correct answer,1771418491888,1,test,10,Pos,B,NULL
1771419002,2af266c8082a4dd6b56e83725485da27,PennController,9,0,test_phase1,NULL,Scale,R3,Choice,Some of them would agree with me,1771418493940,1,test,10,Pos,B,NULL
1771419002,2af266c8082a4dd6b56e83725485da27,PennController,9,0,test_phase1,NULL,Scale,R4,Choice,A little difficult,1771418495905,1,test,10,Pos,B,NULL
1771419002,2af266c8082a4dd6b56e83725485da27,PennController,9,0,test_phase1,NULL,PennController,12,_Trial_,End,1771418497757,1,test,10,Pos,B,NULL
1771419002,2af266c8082a4dd6b56e83725485da27,PennController,10,0,test_phase1,NULL,PennController,13,_Header_,Start,1771418497758,1,test,1,Neg,B,NULL
1771419002,2af266c8082a4dd6b56e83725485da27,PennController,10,0,test_phase1,NULL,PennController,13,_Trial_,Start,1771418497758,1,test,1,Neg,B,NULL
1771419002,2af266c8082a4dd6b56e83725485da27,PennController,10,0,test_phase1,NULL,PennController,13,_Header_,End,1771418498009,1,test,1,Neg,B,NULL
1771419002,2af266c8082a4dd6b56e83725485da27,PennController,10,0,test_phase1,NULL,Scale,R1A,Choice,Very wrong,1771418524988,1,test,1,Neg,B,NULL
1771419002,2af266c8082a4dd6b56e83725485da27,PennController,10,0,test_phase1,NULL,Scale,R2,Choice,Definitely there is a correct answer,1771418527107,1,test,1,Neg,B,NULL
1771419002,2af266c8082a4dd6b56e83725485da27,PennController,10,0,test_phase1,NULL,Scale,R3,Choice,Some of them would agree with me,1771418529005,1,test,1,Neg,B,NULL
1771419002,2af266c8082a4dd6b56e83725485da27,PennController,10,0,test_phase1,NULL,Scale,R4,Choice,Very easy,1771418531456,1,test,1,Neg,B,NULL
1771419002,2af266c8082a4dd6b56e83725485da27,PennController,10,0,test_phase1,NULL,PennController,13,_Trial_,End,1771418532994,1,test,1,Neg,B,NULL
1771419002,2af266c8082a4dd6b56e83725485da27,PennController,8,0,test_phase1,NULL,PennController,11,_Header_,Start,1771418532996,1,test,8,Pos,B,NULL
1771419002,2af266c8082a4dd6b56e83725485da27,PennController,8,0,test_phase1,NULL,PennController,11,_Trial_,Start,1771418532996,1,test,8,Pos,B,NULL
1771419002,2af266c8082a4dd6b56e83725485da27,PennController,8,0,test_phase1,NULL,PennController,11,_Header_,End,1771418533249,1,test,8,Pos,B,NULL
1771419002,2af266c8082a4dd6b56e83725485da27,PennController,8,0,test_phase1,NULL,Scale,R1A,Choice,Somewhat right,1771418550154,1,test,8,Pos,B,NULL
1771419002,2af266c8082a4dd6b56e83725485da27,PennController,8,0,test_phase1,NULL,Scale,R2,Choice,Probably no correct answer,1771418552155,1,test,8,Pos,B,NULL
1771419002,2af266c8082a4dd6b56e83725485da27,PennController,8,0,test_phase1,NULL,Scale,R3,Choice,Some of them would agree with me,1771418554039,1,test,8,Pos,B,NULL
1771419002,2af266c8082a4dd6b56e83725485da27,PennController,8,0,test_phase1,NULL,Scale,R4,Choice,A little easy,1771418555988,1,test,8,Pos,B,NULL
1771419002,2af266c8082a4dd6b56e83725485da27,PennController,8,0,test_phase1,NULL,PennController,11,_Trial_,End,1771418557641,1,test,8,Pos,B,NULL
1771419002,2af266c8082a4dd6b56e83725485da27,PennController,18,0,fillers,NULL,PennController,21,_Header_,Start,1771418557642,1,filler,4,none,none,NULL
1771419002,2af266c8082a4dd6b56e83725485da27,PennController,18,0,fillers,NULL,PennController,21,_Trial_,Start,1771418557642,1,filler,4,none,none,NULL
1771419002,2af266c8082a4dd6b56e83725485da27,PennController,18,0,fillers,NULL,PennController,21,_Header_,End,1771418557892,1,filler,4,none,none,NULL
1771419002,2af266c8082a4dd6b56e83725485da27,PennController,18,0,fillers,NULL,Scale,R1A,Choice,Right,1771418568187,1,filler,4,none,none,NULL
1771419002,2af266c8082a4dd6b56e83725485da27,PennController,18,0,fillers,NULL,Scale,R2,Choice,Probably there is a correct answer,1771418569787,1,filler,4,none,none,NULL
1771419002,2af266c8082a4dd6b56e83725485da27,PennController,18,0,fillers,NULL,Scale,R3,Choice,Almost everyone would agree with me,1771418571939,1,filler,4,none,none,NULL
1771419002,2af266c8082a4dd6b56e83725485da27,PennController,18,0,fillers,NULL,Scale,R4,Choice,Somewhat easy,1771418573687,1,filler,4,none,none,NULL
1771419002,2af266c8082a4dd6b56e83725485da27,PennController,18,0,fillers,NULL,PennController,21,_Trial_,End,1771418574959,1,filler,4,none,none,NULL
1771419002,2af266c8082a4dd6b56e83725485da27,PennController,25,0,fillers,NULL,PennController,28,_Header_,Start,1771418574961,1,filler,11,none,none,NULL
1771419002,2af266c8082a4dd6b56e83725485da27,PennController,25,0,fillers,NULL,PennController,28,_Trial_,Start,1771418574961,1,filler,11,none,none,NULL
1771419002,2af266c8082a4dd6b56e83725485da27,PennController,25,0,fillers,NULL,PennController,28,_Header_,End,1771418575211,1,filler,11,none,none,NULL
1771419002,2af266c8082a4dd6b56e83725485da27,PennController,25,0,fillers,NULL,Scale,R1A,Choice,Very wrong,1771418581288,1,filler,11,none,none,NULL
1771419002,2af266c8082a4dd6b56e83725485da27,PennController,25,0,fillers,NULL,Scale,R2,Choice,Definitely there is a correct answer,1771418583540,1,filler,11,none,none,NULL
1771419002,2af266c8082a4dd6b56e83725485da27,PennController,25,0,fillers,NULL,Scale,R3,Choice,Some of them would agree with me,1771418585956,1,filler,11,none,none,NULL
1771419002,2af266c8082a4dd6b56e83725485da27,PennController,25,0,fillers,NULL,Scale,R4,Choice,Somewhat easy,1771418588071,1,filler,11,none,none,NULL
1771419002,2af266c8082a4dd6b56e83725485da27,PennController,25,0,fillers,NULL,PennController,28,_Trial_,End,1771418589324,1,filler,11,none,none,NULL
1771419002,2af266c8082a4dd6b56e83725485da27,PennController,24,0,fillers,NULL,PennController,27,_Header_,Start,1771418589326,1,filler,10,none,none,NULL
1771419002,2af266c8082a4dd6b56e83725485da27,PennController,24,0,fillers,NULL,PennController,27,_Trial_,Start,1771418589326,1,filler,10,none,none,NULL
1771419002,2af266c8082a4dd6b56e83725485da27,PennController,24,0,fillers,NULL,PennController,27,_Header_,End,1771418589576,1,filler,10,none,none,NULL
1771419002,2af266c8082a4dd6b56e83725485da27,PennController,24,0,fillers,NULL,Scale,R1A,Choice,Wrong,1771418635037,1,filler,10,none,none,NULL
1771419002,2af266c8082a4dd6b56e83725485da27,PennController,24,0,fillers,NULL,Scale,R2,Choice,Probably there is a correct answer,1771418637637,1,filler,10,none,none,NULL
1771419002,2af266c8082a4dd6b56e83725485da27,PennController,24,0,fillers,NULL,Scale,R3,Choice,Most of them would agree with me,1771418640189,1,filler,10,none,none,NULL
1771419002,2af266c8082a4dd6b56e83725485da27,PennController,24,0,fillers,NULL,Scale,R4,Choice,Somewhat easy,1771418641587,1,filler,10,none,none,NULL
1771419002,2af266c8082a4dd6b56e83725485da27,PennController,24,0,fillers,NULL,PennController,27,_Trial_,End,1771418642674,1,filler,10,none,none,NULL
1771419002,2af266c8082a4dd6b56e83725485da27,PennController,17,0,fillers,NULL,PennController,20,_Header_,Start,1771418642676,1,filler,3,none,none,NULL
1771419002,2af266c8082a4dd6b56e83725485da27,PennController,17,0,fillers,NULL,PennController,20,_Trial_,Start,1771418642676,1,filler,3,none,none,NULL
1771419002,2af266c8082a4dd6b56e83725485da27,PennController,17,0,fillers,NULL,PennController,20,_Header_,End,1771418642928,1,filler,3,none,none,NULL
1771419002,2af266c8082a4dd6b56e83725485da27,PennController,17,0,fillers,NULL,Scale,R1A,Choice,Very wrong,1771418649787,1,filler,3,none,none,NULL
1771419002,2af266c8082a4dd6b56e83725485da27,PennController,17,0,fillers,NULL,Scale,R2,Choice,Definitely there is a correct answer,1771418651504,1,filler,3,none,none,NULL
1771419002,2af266c8082a4dd6b56e83725485da27,PennController,17,0,fillers,NULL,Scale,R3,Choice,Some of them would disagree with me,1771418653753,1,filler,3,none,none,NULL
1771419002,2af266c8082a4dd6b56e83725485da27,PennController,17,0,fillers,NULL,Scale,R4,Choice,Somewhat easy,1771418655138,1,filler,3,none,none,NULL
1771419002,2af266c8082a4dd6b56e83725485da27,PennController,17,0,fillers,NULL,PennController,20,_Trial_,End,1771418656221,1,filler,3,none,none,NULL
1771419002,2af266c8082a4dd6b56e83725485da27,PennController,23,0,fillers,NULL,PennController,26,_Header_,Start,1771418656222,1,filler,9,none,none,NULL
1771419002,2af266c8082a4dd6b56e83725485da27,PennController,23,0,fillers,NULL,PennController,26,_Trial_,Start,1771418656222,1,filler,9,none,none,NULL
1771419002,2af266c8082a4dd6b56e83725485da27,PennController,23,0,fillers,NULL,PennController,26,_Header_,End,1771418656474,1,filler,9,none,none,NULL
1771419002,2af266c8082a4dd6b56e83725485da27,PennController,23,0,fillers,NULL,Scale,R1A,Choice,Wrong,1771418660638,1,filler,9,none,none,NULL
1771419002,2af266c8082a4dd6b56e83725485da27,PennController,23,0,fillers,NULL,Scale,R2,Choice,Definitely there is a correct answer,1771418663205,1,filler,9,none,none,NULL
1771419002,2af266c8082a4dd6b56e83725485da27,PennController,23,0,fillers,NULL,Scale,R3,Choice,Some of them would disagree with me,1771418664973,1,filler,9,none,none,NULL
1771419002,2af266c8082a4dd6b56e83725485da27,PennController,23,0,fillers,NULL,Scale,R4,Choice,Somewhat easy,1771418666187,1,filler,9,none,none,NULL
1771419002,2af266c8082a4dd6b56e83725485da27,PennController,23,0,fillers,NULL,PennController,26,_Trial_,End,1771418667423,1,filler,9,none,none,NULL
1771419002,2af266c8082a4dd6b56e83725485da27,PennController,19,0,fillers,NULL,PennController,22,_Header_,Start,1771418667423,1,filler,5,none,none,NULL
1771419002,2af266c8082a4dd6b56e83725485da27,PennController,19,0,fillers,NULL,PennController,22,_Trial_,Start,1771418667423,1,filler,5,none,none,NULL
1771419002,2af266c8082a4dd6b56e83725485da27,PennController,19,0,fillers,NULL,PennController,22,_Header_,End,1771418667677,1,filler,5,none,none,NULL
1771419002,2af266c8082a4dd6b56e83725485da27,PennController,19,0,fillers,NULL,Scale,R1A,Choice,Very wrong,1771418670471,1,filler,5,none,none,NULL
1771419002,2af266c8082a4dd6b56e83725485da27,PennController,19,0,fillers,NULL,Scale,R2,Choice,Definitely there is a correct answer,1771418672789,1,filler,5,none,none,NULL
1771419002,2af266c8082a4dd6b56e83725485da27,PennController,19,0,fillers,NULL,Scale,R3,Choice,Some of them would disagree with me,1771418674720,1,filler,5,none,none,NULL
1771419002,2af266c8082a4dd6b56e83725485da27,PennController,19,0,fillers,NULL,Scale,R4,Choice,Somewhat easy,1771418676055,1,filler,5,none,none,NULL
1771419002,2af266c8082a4dd6b56e83725485da27,PennController,19,0,fillers,NULL,PennController,22,_Trial_,End,1771418677406,1,filler,5,none,none,NULL
1771419002,2af266c8082a4dd6b56e83725485da27,PennController,26,0,fillers,NULL,PennController,29,_Header_,Start,1771418677406,1,filler,12,none,none,NULL
1771419002,2af266c8082a4dd6b56e83725485da27,PennController,26,0,fillers,NULL,PennController,29,_Trial_,Start,1771418677406,1,filler,12,none,none,NULL
1771419002,2af266c8082a4dd6b56e83725485da27,PennController,26,0,fillers,NULL,PennController,29,_Header_,End,1771418677660,1,filler,12,none,none,NULL
1771419002,2af266c8082a4dd6b56e83725485da27,PennController,26,0,fillers,NULL,Scale,R1A,Choice,Somewhat wrong,1771418693840,1,filler,12,none,none,NULL
1771419002,2af266c8082a4dd6b56e83725485da27,PennController,26,0,fillers,NULL,Scale,R2,Choice,Maybe no correct answer,1771418695704,1,filler,12,none,none,NULL
1771419002,2af266c8082a4dd6b56e83725485da27,PennController,26,0,fillers,NULL,Scale,R3,Choice,Some of them would agree with me,1771418697506,1,filler,12,none,none,NULL
1771419002,2af266c8082a4dd6b56e83725485da27,PennController,26,0,fillers,NULL,Scale,R4,Choice,A little difficult,1771418698987,1,filler,12,none,none,NULL
1771419002,2af266c8082a4dd6b56e83725485da27,PennController,26,0,fillers,NULL,PennController,29,_Trial_,End,1771418700424,1,filler,12,none,none,NULL
1771419002,2af266c8082a4dd6b56e83725485da27,PennController,15,0,fillers,NULL,PennController,18,_Header_,Start,1771418700425,1,filler,1,none,none,NULL
1771419002,2af266c8082a4dd6b56e83725485da27,PennController,15,0,fillers,NULL,PennController,18,_Trial_,Start,1771418700425,1,filler,1,none,none,NULL
1771419002,2af266c8082a4dd6b56e83725485da27,PennController,15,0,fillers,NULL,PennController,18,_Header_,End,1771418700677,1,filler,1,none,none,NULL
1771419002,2af266c8082a4dd6b56e83725485da27,PennController,15,0,fillers,NULL,Scale,R1A,Choice,Somewhat wrong,1771418704172,1,filler,1,none,none,NULL
1771419002,2af266c8082a4dd6b56e83725485da27,PennController,15,0,fillers,NULL,Scale,R2,Choice,Probably there is a correct answer,1771418709687,1,filler,1,none,none,NULL
1771419002,2af266c8082a4dd6b56e83725485da27,PennController,15,0,fillers,NULL,Scale,R3,Choice,Some of them would agree with me,1771418713937,1,filler,1,none,none,NULL
1771419002,2af266c8082a4dd6b56e83725485da27,PennController,15,0,fillers,NULL,Scale,R4,Choice,Somewhat easy,1771418715238,1,filler,1,none,none,NULL
1771419002,2af266c8082a4dd6b56e83725485da27,PennController,15,0,fillers,NULL,PennController,18,_Trial_,End,1771418716609,1,filler,1,none,none,NULL
1771419002,2af266c8082a4dd6b56e83725485da27,PennController,22,0,fillers,NULL,PennController,25,_Header_,Start,1771418716610,1,filler,8,none,none,NULL
1771419002,2af266c8082a4dd6b56e83725485da27,PennController,22,0,fillers,NULL,PennController,25,_Trial_,Start,1771418716610,1,filler,8,none,none,NULL
1771419002,2af266c8082a4dd6b56e83725485da27,PennController,22,0,fillers,NULL,PennController,25,_Header_,End,1771418716863,1,filler,8,none,none,NULL
1771419002,2af266c8082a4dd6b56e83725485da27,PennController,22,0,fillers,NULL,Scale,R1A,Choice,Wrong,1771418725789,1,filler,8,none,none,NULL
1771419002,2af266c8082a4dd6b56e83725485da27,PennController,22,0,fillers,NULL,Scale,R2,Choice,Maybe there is a correct answer,1771418728024,1,filler,8,none,none,NULL
1771419002,2af266c8082a4dd6b56e83725485da27,PennController,22,0,fillers,NULL,Scale,R3,Choice,Some of them would agree with me,1771418731954,1,filler,8,none,none,NULL
1771419002,2af266c8082a4dd6b56e83725485da27,PennController,22,0,fillers,NULL,Scale,R4,Choice,Somewhat easy,1771418733953,1,filler,8,none,none,NULL
1771419002,2af266c8082a4dd6b56e83725485da27,PennController,22,0,fillers,NULL,PennController,25,_Trial_,End,1771418736942,1,filler,8,none,none,NULL
1771419002,2af266c8082a4dd6b56e83725485da27,PennController,28,0,fillers,NULL,PennController,31,_Header_,Start,1771418736945,1,filler,14,none,none,NULL
1771419002,2af266c8082a4dd6b56e83725485da27,PennController,28,0,fillers,NULL,PennController,31,_Trial_,Start,1771418736945,1,filler,14,none,none,NULL
1771419002,2af266c8082a4dd6b56e83725485da27,PennController,28,0,fillers,NULL,PennController,31,_Header_,End,1771418737197,1,filler,14,none,none,NULL
1771419002,2af266c8082a4dd6b56e83725485da27,PennController,28,0,fillers,NULL,Scale,R1A,Choice,Wrong,1771418755586,1,filler,14,none,none,NULL
1771419002,2af266c8082a4dd6b56e83725485da27,PennController,28,0,fillers,NULL,Scale,R2,Choice,Probably there is a correct answer,1771418757953,1,filler,14,none,none,NULL
1771419002,2af266c8082a4dd6b56e83725485da27,PennController,28,0,fillers,NULL,Scale,R3,Choice,Some of them would agree with me,1771418760154,1,filler,14,none,none,NULL
1771419002,2af266c8082a4dd6b56e83725485da27,PennController,28,0,fillers,NULL,Scale,R4,Choice,Somewhat easy,1771418761670,1,filler,14,none,none,NULL
1771419002,2af266c8082a4dd6b56e83725485da27,PennController,28,0,fillers,NULL,PennController,31,_Trial_,End,1771418762940,1,filler,14,none,none,NULL
1771419002,2af266c8082a4dd6b56e83725485da27,PennController,27,0,fillers,NULL,PennController,30,_Header_,Start,1771418762943,1,filler,13,none,none,NULL
1771419002,2af266c8082a4dd6b56e83725485da27,PennController,27,0,fillers,NULL,PennController,30,_Trial_,Start,1771418762943,1,filler,13,none,none,NULL
1771419002,2af266c8082a4dd6b56e83725485da27,PennController,27,0,fillers,NULL,PennController,30,_Header_,End,1771418763196,1,filler,13,none,none,NULL
1771419002,2af266c8082a4dd6b56e83725485da27,PennController,27,0,fillers,NULL,Scale,R1A,Choice,Somewhat wrong,1771418769187,1,filler,13,none,none,NULL
1771419002,2af266c8082a4dd6b56e83725485da27,PennController,27,0,fillers,NULL,Scale,R2,Choice,Maybe there is a correct answer,1771418772570,1,filler,13,none,none,NULL
1771419002,2af266c8082a4dd6b56e83725485da27,PennController,27,0,fillers,NULL,Scale,R3,Choice,Some of them would agree with me,1771418774557,1,filler,13,none,none,NULL
1771419002,2af266c8082a4dd6b56e83725485da27,PennController,27,0,fillers,NULL,Scale,R4,Choice,A little difficult,1771418776072,1,filler,13,none,none,NULL
1771419002,2af266c8082a4dd6b56e83725485da27,PennController,27,0,fillers,NULL,PennController,30,_Trial_,End,1771418777661,1,filler,13,none,none,NULL
1771419002,2af266c8082a4dd6b56e83725485da27,PennController,21,0,fillers,NULL,PennController,24,_Header_,Start,1771418777663,1,filler,7,none,none,NULL
1771419002,2af266c8082a4dd6b56e83725485da27,PennController,21,0,fillers,NULL,PennController,24,_Trial_,Start,1771418777663,1,filler,7,none,none,NULL
1771419002,2af266c8082a4dd6b56e83725485da27,PennController,21,0,fillers,NULL,PennController,24,_Header_,End,1771418777913,1,filler,7,none,none,NULL
1771419002,2af266c8082a4dd6b56e83725485da27,PennController,21,0,fillers,NULL,Scale,R1A,Choice,Very wrong,1771418796754,1,filler,7,none,none,NULL
1771419002,2af266c8082a4dd6b56e83725485da27,PennController,21,0,fillers,NULL,Scale,R2,Choice,Definitely there is a correct answer,1771418798770,1,filler,7,none,none,NULL
1771419002,2af266c8082a4dd6b56e83725485da27,PennController,21,0,fillers,NULL,Scale,R3,Choice,Some of them would disagree with me,1771418800371,1,filler,7,none,none,NULL
1771419002,2af266c8082a4dd6b56e83725485da27,PennController,21,0,fillers,NULL,Scale,R4,Choice,Very easy,1771418801874,1,filler,7,none,none,NULL
1771419002,2af266c8082a4dd6b56e83725485da27,PennController,21,0,fillers,NULL,PennController,24,_Trial_,End,1771418803306,1,filler,7,none,none,NULL
1771419002,2af266c8082a4dd6b56e83725485da27,PennController,16,0,fillers,NULL,PennController,19,_Trial_,Start,1771418803308,1,filler,2,none,none,NULL
1771419002,2af266c8082a4dd6b56e83725485da27,PennController,16,0,fillers,NULL,PennController,19,_Header_,Start,1771418803309,1,filler,2,none,none,NULL
1771419002,2af266c8082a4dd6b56e83725485da27,PennController,16,0,fillers,NULL,PennController,19,_Header_,End,1771418803561,1,filler,2,none,none,NULL
1771419002,2af266c8082a4dd6b56e83725485da27,PennController,16,0,fillers,NULL,Scale,R1A,Choice,Very wrong,1771418805887,1,filler,2,none,none,NULL
1771419002,2af266c8082a4dd6b56e83725485da27,PennController,16,0,fillers,NULL,Scale,R2,Choice,Probably there is a correct answer,1771418810420,1,filler,2,none,none,NULL
1771419002,2af266c8082a4dd6b56e83725485da27,PennController,16,0,fillers,NULL,Scale,R3,Choice,Some of them would disagree with me,1771418812222,1,filler,2,none,none,NULL
1771419002,2af266c8082a4dd6b56e83725485da27,PennController,16,0,fillers,NULL,Scale,R4,Choice,Somewhat easy,1771418815137,1,filler,2,none,none,NULL
1771419002,2af266c8082a4dd6b56e83725485da27,PennController,16,0,fillers,NULL,PennController,19,_Trial_,End,1771418816710,1,filler,2,none,none,NULL
1771419002,2af266c8082a4dd6b56e83725485da27,PennController,20,0,fillers,NULL,PennController,23,_Header_,Start,1771418816712,1,filler,6,none,none,NULL
1771419002,2af266c8082a4dd6b56e83725485da27,PennController,20,0,fillers,NULL,PennController,23,_Trial_,Start,1771418816712,1,filler,6,none,none,NULL
1771419002,2af266c8082a4dd6b56e83725485da27,PennController,20,0,fillers,NULL,PennController,23,_Header_,End,1771418816967,1,filler,6,none,none,NULL
1771419002,2af266c8082a4dd6b56e83725485da27,PennController,20,0,fillers,NULL,Scale,R1A,Choice,Somewhat wrong,1771418823720,1,filler,6,none,none,NULL
1771419002,2af266c8082a4dd6b56e83725485da27,PennController,20,0,fillers,NULL,Scale,R2,Choice,Maybe there is a correct answer,1771418825620,1,filler,6,none,none,NULL
1771419002,2af266c8082a4dd6b56e83725485da27,PennController,20,0,fillers,NULL,Scale,R3,Choice,Most of them would agree with me,1771418828336,1,filler,6,none,none,NULL
1771419002,2af266c8082a4dd6b56e83725485da27,PennController,20,0,fillers,NULL,Scale,R4,Choice,Somewhat easy,1771418830471,1,filler,6,none,none,NULL
1771419002,2af266c8082a4dd6b56e83725485da27,PennController,20,0,fillers,NULL,PennController,23,_Trial_,End,1771418831713,1,filler,6,none,none,NULL
# 13. Comments.
1771419002,2af266c8082a4dd6b56e83725485da27,PennController,42,0,instructions2,NULL,PennController,5,_Header_,Start,1771418831714,NULL
1771419002,2af266c8082a4dd6b56e83725485da27,PennController,42,0,instructions2,NULL,PennController,5,_Trial_,Start,1771418831714,NULL
1771419002,2af266c8082a4dd6b56e83725485da27,PennController,42,0,instructions2,NULL,PennController,5,_Header_,End,1771418831967,NULL
1771419002,2af266c8082a4dd6b56e83725485da27,PennController,42,0,instructions2,NULL,PennController,5,_Trial_,End,1771418836690,NULL
# 13. Phase.
# 14. TrialType.
# 15. Number.
# 16. Valence.
# 17. Group.
# 18. Comments.
1771419002,2af266c8082a4dd6b56e83725485da27,PennController,36,0,test_phase2,NULL,PennController,39,_Header_,Start,1771418836692,2,test,5,Neg,B,NULL
1771419002,2af266c8082a4dd6b56e83725485da27,PennController,36,0,test_phase2,NULL,PennController,39,_Trial_,Start,1771418836692,2,test,5,Neg,B,NULL
1771419002,2af266c8082a4dd6b56e83725485da27,PennController,36,0,test_phase2,NULL,PennController,39,_Header_,End,1771418836943,2,test,5,Neg,B,NULL
1771419002,2af266c8082a4dd6b56e83725485da27,PennController,36,0,test_phase2,NULL,Scale,R5,Choice,The other person is likely mistaken,1771418854355,2,test,5,Neg,B,NULL
1771419002,2af266c8082a4dd6b56e83725485da27,PennController,36,0,test_phase2,NULL,Scale,R6,Choice,Very uncomfortable,1771418856405,2,test,5,Neg,B,NULL
1771419002,2af266c8082a4dd6b56e83725485da27,PennController,36,0,test_phase2,NULL,PennController,39,_Trial_,End,1771418858092,2,test,5,Neg,B,NULL
1771419002,2af266c8082a4dd6b56e83725485da27,PennController,30,0,test_phase2,NULL,PennController,33,_Header_,Start,1771418858093,2,test,4,Pos,B,NULL
1771419002,2af266c8082a4dd6b56e83725485da27,PennController,30,0,test_phase2,NULL,PennController,33,_Trial_,Start,1771418858093,2,test,4,Pos,B,NULL
1771419002,2af266c8082a4dd6b56e83725485da27,PennController,30,0,test_phase2,NULL,PennController,33,_Header_,End,1771418858346,2,test,4,Pos,B,NULL
1771419002,2af266c8082a4dd6b56e83725485da27,PennController,30,0,test_phase2,NULL,Scale,R5,Choice,Probably neither of us needs to be mistaken,1771418865104,2,test,4,Pos,B,NULL
1771419002,2af266c8082a4dd6b56e83725485da27,PennController,30,0,test_phase2,NULL,Scale,R6,Choice,Mildly uncomfortable,1771418866871,2,test,4,Pos,B,NULL
1771419002,2af266c8082a4dd6b56e83725485da27,PennController,30,0,test_phase2,NULL,PennController,33,_Trial_,End,1771418867992,2,test,4,Pos,B,NULL
1771419002,2af266c8082a4dd6b56e83725485da27,PennController,33,0,test_phase2,NULL,PennController,36,_Header_,Start,1771418867995,2,test,10,Pos,B,NULL
1771419002,2af266c8082a4dd6b56e83725485da27,PennController,33,0,test_phase2,NULL,PennController,36,_Trial_,Start,1771418867995,2,test,10,Pos,B,NULL
1771419002,2af266c8082a4dd6b56e83725485da27,PennController,33,0,test_phase2,NULL,PennController,36,_Header_,End,1771418868247,2,test,10,Pos,B,NULL
1771419002,2af266c8082a4dd6b56e83725485da27,PennController,33,0,test_phase2,NULL,Scale,R5,Choice,Maybe neither of us needs to be mistaken,1771418873604,2,test,10,Pos,B,NULL
1771419002,2af266c8082a4dd6b56e83725485da27,PennController,33,0,test_phase2,NULL,Scale,R6,Choice,Mildly uncomfortable,1771418875170,2,test,10,Pos,B,NULL
1771419002,2af266c8082a4dd6b56e83725485da27,PennController,33,0,test_phase2,NULL,PennController,36,_Trial_,End,1771418876340,2,test,10,Pos,B,NULL
1771419002,2af266c8082a4dd6b56e83725485da27,PennController,29,0,test_phase2,NULL,PennController,32,_Header_,Start,1771418876342,2,test,2,Pos,B,NULL
1771419002,2af266c8082a4dd6b56e83725485da27,PennController,29,0,test_phase2,NULL,PennController,32,_Trial_,Start,1771418876342,2,test,2,Pos,B,NULL
1771419002,2af266c8082a4dd6b56e83725485da27,PennController,29,0,test_phase2,NULL,PennController,32,_Header_,End,1771418876594,2,test,2,Pos,B,NULL
1771419002,2af266c8082a4dd6b56e83725485da27,PennController,29,0,test_phase2,NULL,Scale,R5,Choice,Maybe neither of us needs to be mistaken,1771418880556,2,test,2,Pos,B,NULL
1771419002,2af266c8082a4dd6b56e83725485da27,PennController,29,0,test_phase2,NULL,Scale,R6,Choice,Mildly uncomfortable,1771418882271,2,test,2,Pos,B,NULL
1771419002,2af266c8082a4dd6b56e83725485da27,PennController,29,0,test_phase2,NULL,PennController,32,_Trial_,End,1771418883357,2,test,2,Pos,B,NULL
1771419002,2af266c8082a4dd6b56e83725485da27,PennController,32,0,test_phase2,NULL,PennController,35,_Header_,Start,1771418883359,2,test,8,Pos,B,NULL
1771419002,2af266c8082a4dd6b56e83725485da27,PennController,32,0,test_phase2,NULL,PennController,35,_Trial_,Start,1771418883359,2,test,8,Pos,B,NULL
1771419002,2af266c8082a4dd6b56e83725485da27,PennController,32,0,test_phase2,NULL,PennController,35,_Header_,End,1771418883610,2,test,8,Pos,B,NULL
1771419002,2af266c8082a4dd6b56e83725485da27,PennController,32,0,test_phase2,NULL,Scale,R5,Choice,Maybe neither of us needs to be mistaken,1771418889489,2,test,8,Pos,B,NULL
1771419002,2af266c8082a4dd6b56e83725485da27,PennController,32,0,test_phase2,NULL,Scale,R6,Choice,Mildly uncomfortable,1771418892203,2,test,8,Pos,B,NULL
1771419002,2af266c8082a4dd6b56e83725485da27,PennController,32,0,test_phase2,NULL,PennController,35,_Trial_,End,1771418893274,2,test,8,Pos,B,NULL
1771419002,2af266c8082a4dd6b56e83725485da27,PennController,35,0,test_phase2,NULL,PennController,38,_Header_,Start,1771418893276,2,test,3,Neg,B,NULL
1771419002,2af266c8082a4dd6b56e83725485da27,PennController,35,0,test_phase2,NULL,PennController,38,_Trial_,Start,1771418893276,2,test,3,Neg,B,NULL
1771419002,2af266c8082a4dd6b56e83725485da27,PennController,35,0,test_phase2,NULL,PennController,38,_Header_,End,1771418893529,2,test,3,Neg,B,NULL
1771419002,2af266c8082a4dd6b56e83725485da27,PennController,35,0,test_phase2,NULL,Scale,R5,Choice,The other person is likely mistaken,1771418915254,2,test,3,Neg,B,NULL
1771419002,2af266c8082a4dd6b56e83725485da27,PennController,35,0,test_phase2,NULL,Scale,R6,Choice,Mildly uncomfortable,1771418917503,2,test,3,Neg,B,NULL
1771419002,2af266c8082a4dd6b56e83725485da27,PennController,35,0,test_phase2,NULL,PennController,38,_Trial_,End,1771418918622,2,test,3,Neg,B,NULL
1771419002,2af266c8082a4dd6b56e83725485da27,PennController,34,0,test_phase2,NULL,PennController,37,_Header_,Start,1771418918623,2,test,1,Neg,B,NULL
1771419002,2af266c8082a4dd6b56e83725485da27,PennController,34,0,test_phase2,NULL,PennController,37,_Trial_,Start,1771418918623,2,test,1,Neg,B,NULL
1771419002,2af266c8082a4dd6b56e83725485da27,PennController,34,0,test_phase2,NULL,PennController,37,_Header_,End,1771418918876,2,test,1,Neg,B,NULL
1771419002,2af266c8082a4dd6b56e83725485da27,PennController,34,0,test_phase2,NULL,Scale,R5,Choice,The other person is clearly mistaken,1771418938986,2,test,1,Neg,B,NULL
1771419002,2af266c8082a4dd6b56e83725485da27,PennController,34,0,test_phase2,NULL,Scale,R6,Choice,Very uncomfortable,1771418941569,2,test,1,Neg,B,NULL
1771419002,2af266c8082a4dd6b56e83725485da27,PennController,34,0,test_phase2,NULL,PennController,37,_Trial_,End,1771418942456,2,test,1,Neg,B,NULL
1771419002,2af266c8082a4dd6b56e83725485da27,PennController,37,0,test_phase2,NULL,PennController,40,_Header_,Start,1771418942459,2,test,7,Neg,B,NULL
1771419002,2af266c8082a4dd6b56e83725485da27,PennController,37,0,test_phase2,NULL,PennController,40,_Trial_,Start,1771418942459,2,test,7,Neg,B,NULL
1771419002,2af266c8082a4dd6b56e83725485da27,PennController,37,0,test_phase2,NULL,PennController,40,_Header_,End,1771418942712,2,test,7,Neg,B,NULL
1771419002,2af266c8082a4dd6b56e83725485da27,PennController,37,0,test_phase2,NULL,Scale,R5,Choice,The other person is clearly mistaken,1771418947720,2,test,7,Neg,B,NULL
1771419002,2af266c8082a4dd6b56e83725485da27,PennController,37,0,test_phase2,NULL,Scale,R6,Choice,Very uncomfortable,1771418948986,2,test,7,Neg,B,NULL
1771419002,2af266c8082a4dd6b56e83725485da27,PennController,37,0,test_phase2,NULL,PennController,40,_Trial_,End,1771418950122,2,test,7,Neg,B,NULL
1771419002,2af266c8082a4dd6b56e83725485da27,PennController,38,0,test_phase2,NULL,PennController,41,_Header_,Start,1771418950123,2,test,9,Neg,B,NULL
1771419002,2af266c8082a4dd6b56e83725485da27,PennController,38,0,test_phase2,NULL,PennController,41,_Trial_,Start,1771418950123,2,test,9,Neg,B,NULL
1771419002,2af266c8082a4dd6b56e83725485da27,PennController,38,0,test_phase2,NULL,PennController,41,_Header_,End,1771418950375,2,test,9,Neg,B,NULL
1771419002,2af266c8082a4dd6b56e83725485da27,PennController,38,0,test_phase2,NULL,Scale,R5,Choice,The other person is clearly mistaken,1771418956321,2,test,9,Neg,B,NULL
1771419002,2af266c8082a4dd6b56e83725485da27,PennController,38,0,test_phase2,NULL,Scale,R6,Choice,Very uncomfortable,1771418957854,2,test,9,Neg,B,NULL
1771419002,2af266c8082a4dd6b56e83725485da27,PennController,38,0,test_phase2,NULL,PennController,41,_Trial_,End,1771418959338,2,test,9,Neg,B,NULL
1771419002,2af266c8082a4dd6b56e83725485da27,PennController,31,0,test_phase2,NULL,PennController,34,_Header_,Start,1771418959340,2,test,6,Pos,B,NULL
1771419002,2af266c8082a4dd6b56e83725485da27,PennController,31,0,test_phase2,NULL,PennController,34,_Trial_,Start,1771418959340,2,test,6,Pos,B,NULL
1771419002,2af266c8082a4dd6b56e83725485da27,PennController,31,0,test_phase2,NULL,PennController,34,_Header_,End,1771418959592,2,test,6,Pos,B,NULL
1771419002,2af266c8082a4dd6b56e83725485da27,PennController,31,0,test_phase2,NULL,Scale,R5,Choice,The other person is likely mistaken,1771418968070,2,test,6,Pos,B,NULL
1771419002,2af266c8082a4dd6b56e83725485da27,PennController,31,0,test_phase2,NULL,Scale,R6,Choice,Mildly uncomfortable,1771418970003,2,test,6,Pos,B,NULL
1771419002,2af266c8082a4dd6b56e83725485da27,PennController,31,0,test_phase2,NULL,PennController,34,_Trial_,End,1771418971040,2,test,6,Pos,B,NULL
# 13. Comments.
1771419002,2af266c8082a4dd6b56e83725485da27,PennController,40,0,demo,NULL,PennController,3,_Header_,Start,1771418971042,NULL
1771419002,2af266c8082a4dd6b56e83725485da27,PennController,40,0,demo,NULL,PennController,3,_Trial_,Start,1771418971042,NULL
1771419002,2af266c8082a4dd6b56e83725485da27,PennController,40,0,demo,NULL,PennController,3,_Header_,End,1771418971295,NULL
1771419002,2af266c8082a4dd6b56e83725485da27,PennController,40,0,demo,NULL,PennController,3,_Trial_,End,1771419001892,NULL
1771419002,2af266c8082a4dd6b56e83725485da27,PennController,40,0,demo,NULL,Html,bg_form,gender,woman,1771419001892,radio button
1771419002,2af266c8082a4dd6b56e83725485da27,PennController,40,0,demo,NULL,Html,bg_form,rightwrong,no,1771419001892,radio button
1771419002,2af266c8082a4dd6b56e83725485da27,PennController,40,0,demo,NULL,Html,bg_form,lang4,unchecked,1771419001892,checkbox
1771419002,2af266c8082a4dd6b56e83725485da27,PennController,40,0,demo,NULL,Html,bg_form,religion,unchecked,1771419001892,checkbox
1771419002,2af266c8082a4dd6b56e83725485da27,PennController,40,0,demo,NULL,Html,bg_form,religion,unchecked,1771419001892,checkbox
1771419002,2af266c8082a4dd6b56e83725485da27,PennController,40,0,demo,NULL,Html,bg_form,religion,unchecked,1771419001892,checkbox
1771419002,2af266c8082a4dd6b56e83725485da27,PennController,40,0,demo,NULL,Html,bg_form,religion,unchecked,1771419001892,checkbox
1771419002,2af266c8082a4dd6b56e83725485da27,PennController,40,0,demo,NULL,Html,bg_form,religion,unchecked,1771419001892,checkbox
1771419002,2af266c8082a4dd6b56e83725485da27,PennController,40,0,demo,NULL,Html,bg_form,religion,unchecked,1771419001892,checkbox
1771419002,2af266c8082a4dd6b56e83725485da27,PennController,40,0,demo,NULL,Html,bg_form,religion,unchecked,1771419001892,checkbox
1771419002,2af266c8082a4dd6b56e83725485da27,PennController,40,0,demo,NULL,Html,bg_form,religion,unchecked,1771419001892,checkbox
1771419002,2af266c8082a4dd6b56e83725485da27,PennController,40,0,demo,NULL,Html,bg_form,religion,checked,1771419001892,checkbox
1771419002,2af266c8082a4dd6b56e83725485da27,PennController,40,0,demo,NULL,Html,bg_form,religion,unchecked,1771419001892,checkbox
1771419002,2af266c8082a4dd6b56e83725485da27,PennController,40,0,demo,NULL,Html,bg_form,moral_reason,unchecked,1771419001892,checkbox
1771419002,2af266c8082a4dd6b56e83725485da27,PennController,40,0,demo,NULL,Html,bg_form,moral_reason,unchecked,1771419001892,checkbox
1771419002,2af266c8082a4dd6b56e83725485da27,PennController,40,0,demo,NULL,Html,bg_form,moral_reason,unchecked,1771419001892,checkbox
1771419002,2af266c8082a4dd6b56e83725485da27,PennController,40,0,demo,NULL,Html,bg_form,moral_reason,checked,1771419001892,checkbox
1771419002,2af266c8082a4dd6b56e83725485da27,PennController,40,0,demo,NULL,Html,bg_form,lang3,,1771419001892,text input
1771419002,2af266c8082a4dd6b56e83725485da27,PennController,40,0,demo,NULL,Html,bg_form,lang2,,1771419001892,text input
1771419002,2af266c8082a4dd6b56e83725485da27,PennController,40,0,demo,NULL,Html,bg_form,lang1,English,1771419001892,text input
1771419002,2af266c8082a4dd6b56e83725485da27,PennController,40,0,demo,NULL,Html,bg_form,country,UK,1771419001892,text input
#
# Results on Wed, 18 Feb 2026 12:51:20 GMT
# USER AGENT: Mozilla/5.0 (Macintosh; Intel Mac OS X 10_15_7) AppleWebKit/537.36 (KHTML, like Gecko) Chrome/144.0.0.0 Safari/537.36
# Design number was non-random = 1
#
# Columns below this comment are as follows:
# 1. Results reception time.
# 2. MD5 hash of participant's IP address.
# 3. Controller name.
# 4. Order number of item.
# 5. Inner element number.
# 6. Label.
# 7. Latin Square Group.
# 8. PennElementType.
# 9. PennElementName.
# 10. Parameter.
# 11. Value.
# 12. EventTime.
# 13. Comments.
1771419080,64cdeea2c5d9a0ce39564f2f591c5f94,PennController,0,0,welcome,NULL,PennController,0,_Trial_,Start,1771418218182,NULL
1771419080,64cdeea2c5d9a0ce39564f2f591c5f94,PennController,0,0,welcome,NULL,PennController,0,_Header_,Start,1771418218183,NULL
1771419080,64cdeea2c5d9a0ce39564f2f591c5f94,PennController,0,0,welcome,NULL,PennController,0,_Header_,End,1771418218435,NULL
1771419080,64cdeea2c5d9a0ce39564f2f591c5f94,PennController,0,0,welcome,NULL,PennController,0,_Trial_,End,1771418220392,NULL
1771419080,64cdeea2c5d9a0ce39564f2f591c5f94,PennController,39,0,consent,NULL,PennController,2,_Trial_,Start,1771418220394,NULL
1771419080,64cdeea2c5d9a0ce39564f2f591c5f94,PennController,39,0,consent,NULL,PennController,2,_Header_,Start,1771418220394,NULL
1771419080,64cdeea2c5d9a0ce39564f2f591c5f94,PennController,39,0,consent,NULL,PennController,2,_Header_,End,1771418220647,NULL
1771419080,64cdeea2c5d9a0ce39564f2f591c5f94,PennController,39,0,consent,NULL,PennController,2,_Trial_,End,1771418233522,NULL
1771419080,64cdeea2c5d9a0ce39564f2f591c5f94,PennController,41,0,instructions1,NULL,PennController,4,_Trial_,Start,1771418233523,NULL
1771419080,64cdeea2c5d9a0ce39564f2f591c5f94,PennController,41,0,instructions1,NULL,PennController,4,_Header_,Start,1771418233523,NULL
1771419080,64cdeea2c5d9a0ce39564f2f591c5f94,PennController,41,0,instructions1,NULL,PennController,4,_Header_,End,1771418233775,NULL
1771419080,64cdeea2c5d9a0ce39564f2f591c5f94,PennController,41,0,instructions1,NULL,PennController,4,_Trial_,End,1771418237699,NULL
# 13. TrialType.
# 14. Number.
# 15. Valence.
# 16. Group.
# 17. Comments.
1771419080,64cdeea2c5d9a0ce39564f2f591c5f94,PennController,4,0,practice,NULL,PennController,7,_Trial_,Start,1771418237700,Practice,2,none,none,NULL
1771419080,64cdeea2c5d9a0ce39564f2f591c5f94,PennController,4,0,practice,NULL,PennController,7,_Header_,Start,1771418237700,Practice,2,none,none,NULL
1771419080,64cdeea2c5d9a0ce39564f2f591c5f94,PennController,4,0,practice,NULL,PennController,7,_Header_,End,1771418237951,Practice,2,none,none,NULL
1771419080,64cdeea2c5d9a0ce39564f2f591c5f94,PennController,4,0,practice,NULL,Scale,R1A,Choice,Very wrong,1771418249081,Practice,2,none,none,NULL
1771419080,64cdeea2c5d9a0ce39564f2f591c5f94,PennController,4,0,practice,NULL,Scale,R2,Choice,Maybe there is a correct answer,1771418259191,Practice,2,none,none,NULL
1771419080,64cdeea2c5d9a0ce39564f2f591c5f94,PennController,4,0,practice,NULL,Scale,R3,Choice,Most of them would agree with me,1771418268685,Practice,2,none,none,NULL
1771419080,64cdeea2c5d9a0ce39564f2f591c5f94,PennController,4,0,practice,NULL,Scale,R4,Choice,A little easy,1771418275032,Practice,2,none,none,NULL
1771419080,64cdeea2c5d9a0ce39564f2f591c5f94,PennController,4,0,practice,NULL,PennController,7,_Trial_,End,1771418276292,Practice,2,none,none,NULL
1771419080,64cdeea2c5d9a0ce39564f2f591c5f94,PennController,3,0,practice,NULL,PennController,6,_Trial_,Start,1771418276294,Practice,1,none,none,NULL
1771419080,64cdeea2c5d9a0ce39564f2f591c5f94,PennController,3,0,practice,NULL,PennController,6,_Header_,Start,1771418276294,Practice,1,none,none,NULL
1771419080,64cdeea2c5d9a0ce39564f2f591c5f94,PennController,3,0,practice,NULL,PennController,6,_Header_,End,1771418276546,Practice,1,none,none,NULL
1771419080,64cdeea2c5d9a0ce39564f2f591c5f94,PennController,3,0,practice,NULL,Scale,R2,Choice,Maybe no correct answer,1771418293499,Practice,1,none,none,NULL
1771419080,64cdeea2c5d9a0ce39564f2f591c5f94,PennController,3,0,practice,NULL,Scale,R3,Choice,Most of them would disagree with me,1771418298791,Practice,1,none,none,NULL
1771419080,64cdeea2c5d9a0ce39564f2f591c5f94,PennController,3,0,practice,NULL,Scale,R1A,Choice,Somewhat right,1771418301933,Practice,1,none,none,NULL
1771419080,64cdeea2c5d9a0ce39564f2f591c5f94,PennController,3,0,practice,NULL,Scale,R4,Choice,A little difficult,1771418305587,Practice,1,none,none,NULL
1771419080,64cdeea2c5d9a0ce39564f2f591c5f94,PennController,3,0,practice,NULL,PennController,6,_Trial_,End,1771418306700,Practice,1,none,none,NULL
# 13. Phase.
# 14. TrialType.
# 15. Number.
# 16. Valence.
# 17. Group.
# 18. Comments.
1771419080,64cdeea2c5d9a0ce39564f2f591c5f94,PennController,14,0,test_phase1,NULL,PennController,17,_Trial_,Start,1771418306701,1,test,9,Neg,B,NULL
1771419080,64cdeea2c5d9a0ce39564f2f591c5f94,PennController,14,0,test_phase1,NULL,PennController,17,_Header_,Start,1771418306701,1,test,9,Neg,B,NULL
1771419080,64cdeea2c5d9a0ce39564f2f591c5f94,PennController,14,0,test_phase1,NULL,PennController,17,_Header_,End,1771418306956,1,test,9,Neg,B,NULL
1771419080,64cdeea2c5d9a0ce39564f2f591c5f94,PennController,14,0,test_phase1,NULL,Scale,R1A,Choice,Somewhat wrong,1771418330916,1,test,9,Neg,B,NULL
1771419080,64cdeea2c5d9a0ce39564f2f591c5f94,PennController,14,0,test_phase1,NULL,Scale,R2,Choice,Maybe there is a correct answer,1771418338027,1,test,9,Neg,B,NULL
1771419080,64cdeea2c5d9a0ce39564f2f591c5f94,PennController,14,0,test_phase1,NULL,Scale,R3,Choice,Most of them would agree with me,1771418342605,1,test,9,Neg,B,NULL
1771419080,64cdeea2c5d9a0ce39564f2f591c5f94,PennController,14,0,test_phase1,NULL,Scale,R4,Choice,Somewhat difficult,1771418346700,1,test,9,Neg,B,NULL
1771419080,64cdeea2c5d9a0ce39564f2f591c5f94,PennController,14,0,test_phase1,NULL,PennController,17,_Trial_,End,1771418348104,1,test,9,Neg,B,NULL
1771419080,64cdeea2c5d9a0ce39564f2f591c5f94,PennController,5,0,test_phase1,NULL,PennController,8,_Trial_,Start,1771418348105,1,test,2,Pos,B,NULL
1771419080,64cdeea2c5d9a0ce39564f2f591c5f94,PennController,5,0,test_phase1,NULL,PennController,8,_Header_,Start,1771418348105,1,test,2,Pos,B,NULL
1771419080,64cdeea2c5d9a0ce39564f2f591c5f94,PennController,5,0,test_phase1,NULL,PennController,8,_Header_,End,1771418348359,1,test,2,Pos,B,NULL
1771419080,64cdeea2c5d9a0ce39564f2f591c5f94,PennController,5,0,test_phase1,NULL,Scale,R1A,Choice,Somewhat wrong,1771418372283,1,test,2,Pos,B,NULL
1771419080,64cdeea2c5d9a0ce39564f2f591c5f94,PennController,5,0,test_phase1,NULL,Scale,R2,Choice,Maybe there is a correct answer,1771418377227,1,test,2,Pos,B,NULL
