#
# Results on Thu, 19 Feb 2026 12:53:25 GMT
# USER AGENT: Mozilla/5.0 (Windows NT 10.0; Win64; x64; rv:147.0) Gecko/20100101 Firefox/147.0
# Design number was non-random = 0
#
# Columns below this comment are as follows:
# 1. Results reception time.
# 2. MD5 hash of participant's IP address.
# 3. Controller name.
# 4. Order number of item.
# 5. Inner element number.
# 6. Label.
# 7. Latin Square Group.
# 8. PennElementType.
# 9. PennElementName.
# 10. Parameter.
# 11. Value.
# 12. EventTime.
# 13. Comments.
1771505605,0a3cc1b92626ea1caa292d3969a9d3ab,PennController,0,0,welcome,NULL,PennController,0,_Trial_,Start,1771505048496,NULL
1771505605,0a3cc1b92626ea1caa292d3969a9d3ab,PennController,0,0,welcome,NULL,PennController,0,_Header_,Start,1771505048496,NULL
1771505605,0a3cc1b92626ea1caa292d3969a9d3ab,PennController,0,0,welcome,NULL,PennController,0,_Header_,End,1771505048753,NULL
1771505605,0a3cc1b92626ea1caa292d3969a9d3ab,PennController,0,0,welcome,NULL,PennController,0,_Trial_,End,1771505050597,NULL
1771505605,0a3cc1b92626ea1caa292d3969a9d3ab,PennController,39,0,consent,NULL,PennController,2,_Trial_,Start,1771505050598,NULL
1771505605,0a3cc1b92626ea1caa292d3969a9d3ab,PennController,39,0,consent,NULL,PennController,2,_Header_,Start,1771505050598,NULL
1771505605,0a3cc1b92626ea1caa292d3969a9d3ab,PennController,39,0,consent,NULL,PennController,2,_Header_,End,1771505050851,NULL
1771505605,0a3cc1b92626ea1caa292d3969a9d3ab,PennController,39,0,consent,NULL,PennController,2,_Trial_,End,1771505056801,NULL
1771505605,0a3cc1b92626ea1caa292d3969a9d3ab,PennController,41,0,instructions1,NULL,PennController,4,_Trial_,Start,1771505056804,NULL
1771505605,0a3cc1b92626ea1caa292d3969a9d3ab,PennController,41,0,instructions1,NULL,PennController,4,_Header_,Start,1771505056804,NULL
1771505605,0a3cc1b92626ea1caa292d3969a9d3ab,PennController,41,0,instructions1,NULL,PennController,4,_Header_,End,1771505057067,NULL
1771505605,0a3cc1b92626ea1caa292d3969a9d3ab,PennController,41,0,instructions1,NULL,PennController,4,_Trial_,End,1771505059654,NULL
# 13. TrialType.
# 14. Number.
# 15. Valence.
# 16. Group.
# 17. Comments.
1771505605,0a3cc1b92626ea1caa292d3969a9d3ab,PennController,3,0,practice,NULL,PennController,6,_Trial_,Start,1771505059655,Practice,1,none,none,NULL
1771505605,0a3cc1b92626ea1caa292d3969a9d3ab,PennController,3,0,practice,NULL,PennController,6,_Header_,Start,1771505059655,Practice,1,none,none,NULL
1771505605,0a3cc1b92626ea1caa292d3969a9d3ab,PennController,3,0,practice,NULL,PennController,6,_Header_,End,1771505059915,Practice,1,none,none,NULL
1771505605,0a3cc1b92626ea1caa292d3969a9d3ab,PennController,3,0,practice,NULL,Scale,R1B,Choice,Good,1771505068168,Practice,1,none,none,NULL
1771505605,0a3cc1b92626ea1caa292d3969a9d3ab,PennController,3,0,practice,NULL,Scale,R2,Choice,Maybe no correct answer,1771505074244,Practice,1,none,none,NULL
1771505605,0a3cc1b92626ea1caa292d3969a9d3ab,PennController,3,0,practice,NULL,Scale,R3,Choice,Some of them would disagree with me,1771505078861,Practice,1,none,none,NULL
1771505605,0a3cc1b92626ea1caa292d3969a9d3ab,PennController,3,0,practice,NULL,Scale,R4,Choice,Somewhat easy,1771505080737,Practice,1,none,none,NULL
1771505605,0a3cc1b92626ea1caa292d3969a9d3ab,PennController,3,0,practice,NULL,PennController,6,_Trial_,End,1771505081437,Practice,1,none,none,NULL
1771505605,0a3cc1b92626ea1caa292d3969a9d3ab,PennController,4,0,practice,NULL,PennController,7,_Trial_,Start,1771505081438,Practice,2,none,none,NULL
1771505605,0a3cc1b92626ea1caa292d3969a9d3ab,PennController,4,0,practice,NULL,PennController,7,_Header_,Start,1771505081438,Practice,2,none,none,NULL
1771505605,0a3cc1b92626ea1caa292d3969a9d3ab,PennController,4,0,practice,NULL,PennController,7,_Header_,End,1771505081702,Practice,2,none,none,NULL
1771505605,0a3cc1b92626ea1caa292d3969a9d3ab,PennController,4,0,practice,NULL,Scale,R1B,Choice,Somewhat wrong,1771505089066,Practice,2,none,none,NULL
1771505605,0a3cc1b92626ea1caa292d3969a9d3ab,PennController,4,0,practice,NULL,Scale,R2,Choice,Probably there is a correct answer,1771505091204,Practice,2,none,none,NULL
1771505605,0a3cc1b92626ea1caa292d3969a9d3ab,PennController,4,0,practice,NULL,Scale,R3,Choice,Almost everyone would agree with me,1771505094455,Practice,2,none,none,NULL
1771505605,0a3cc1b92626ea1caa292d3969a9d3ab,PennController,4,0,practice,NULL,Scale,R4,Choice,Very easy,1771505095934,Practice,2,none,none,NULL
1771505605,0a3cc1b92626ea1caa292d3969a9d3ab,PennController,4,0,practice,NULL,PennController,7,_Trial_,End,1771505097029,Practice,2,none,none,NULL
# 13. Phase.
# 14. TrialType.
# 15. Number.
# 16. Valence.
# 17. Group.
# 18. Comments.
1771505605,0a3cc1b92626ea1caa292d3969a9d3ab,PennController,8,0,test_phase1,NULL,PennController,11,_Trial_,Start,1771505097030,1,test,7,Pos,A,NULL
1771505605,0a3cc1b92626ea1caa292d3969a9d3ab,PennController,8,0,test_phase1,NULL,PennController,11,_Header_,Start,1771505097030,1,test,7,Pos,A,NULL
1771505605,0a3cc1b92626ea1caa292d3969a9d3ab,PennController,8,0,test_phase1,NULL,PennController,11,_Header_,End,1771505097282,1,test,7,Pos,A,NULL
1771505605,0a3cc1b92626ea1caa292d3969a9d3ab,PennController,8,0,test_phase1,NULL,Scale,R1B,Choice,Good,1771505106976,1,test,7,Pos,A,NULL
1771505605,0a3cc1b92626ea1caa292d3969a9d3ab,PennController,8,0,test_phase1,NULL,Scale,R2,Choice,Maybe no correct answer,1771505110875,1,test,7,Pos,A,NULL
1771505605,0a3cc1b92626ea1caa292d3969a9d3ab,PennController,8,0,test_phase1,NULL,Scale,R3,Choice,Some of them would agree with me,1771505116104,1,test,7,Pos,A,NULL
1771505605,0a3cc1b92626ea1caa292d3969a9d3ab,PennController,8,0,test_phase1,NULL,Scale,R4,Choice,Somewhat easy,1771505118399,1,test,7,Pos,A,NULL
1771505605,0a3cc1b92626ea1caa292d3969a9d3ab,PennController,8,0,test_phase1,NULL,PennController,11,_Trial_,End,1771505119368,1,test,7,Pos,A,NULL
1771505605,0a3cc1b92626ea1caa292d3969a9d3ab,PennController,11,0,test_phase1,NULL,PennController,14,_Trial_,Start,1771505119372,1,test,4,Neg,A,NULL
1771505605,0a3cc1b92626ea1caa292d3969a9d3ab,PennController,11,0,test_phase1,NULL,PennController,14,_Header_,Start,1771505119372,1,test,4,Neg,A,NULL
1771505605,0a3cc1b92626ea1caa292d3969a9d3ab,PennController,11,0,test_phase1,NULL,PennController,14,_Header_,End,1771505119630,1,test,4,Neg,A,NULL
1771505605,0a3cc1b92626ea1caa292d3969a9d3ab,PennController,11,0,test_phase1,NULL,Scale,R1B,Choice,Somewhat wrong,1771505133199,1,test,4,Neg,A,NULL
1771505605,0a3cc1b92626ea1caa292d3969a9d3ab,PennController,11,0,test_phase1,NULL,Scale,R2,Choice,Probably there is a correct answer,1771505137162,1,test,4,Neg,A,NULL
1771505605,0a3cc1b92626ea1caa292d3969a9d3ab,PennController,11,0,test_phase1,NULL,Scale,R3,Choice,Most of them would agree with me,1771505138998,1,test,4,Neg,A,NULL
1771505605,0a3cc1b92626ea1caa292d3969a9d3ab,PennController,11,0,test_phase1,NULL,Scale,R4,Choice,Somewhat easy,1771505140461,1,test,4,Neg,A,NULL
1771505605,0a3cc1b92626ea1caa292d3969a9d3ab,PennController,11,0,test_phase1,NULL,PennController,14,_Trial_,End,1771505141248,1,test,4,Neg,A,NULL
1771505605,0a3cc1b92626ea1caa292d3969a9d3ab,PennController,13,0,test_phase1,NULL,PennController,16,_Trial_,Start,1771505141250,1,test,8,Neg,A,NULL
1771505605,0a3cc1b92626ea1caa292d3969a9d3ab,PennController,13,0,test_phase1,NULL,PennController,16,_Header_,Start,1771505141250,1,test,8,Neg,A,NULL
1771505605,0a3cc1b92626ea1caa292d3969a9d3ab,PennController,13,0,test_phase1,NULL,PennController,16,_Header_,End,1771505141508,1,test,8,Neg,A,NULL
1771505605,0a3cc1b92626ea1caa292d3969a9d3ab,PennController,13,0,test_phase1,NULL,Scale,R1B,Choice,Good,1771505151843,1,test,8,Neg,A,NULL
1771505605,0a3cc1b92626ea1caa292d3969a9d3ab,PennController,13,0,test_phase1,NULL,Scale,R2,Choice,Maybe no correct answer,1771505154169,1,test,8,Neg,A,NULL
1771505605,0a3cc1b92626ea1caa292d3969a9d3ab,PennController,13,0,test_phase1,NULL,Scale,R3,Choice,Most of them would agree with me,1771505156392,1,test,8,Neg,A,NULL
1771505605,0a3cc1b92626ea1caa292d3969a9d3ab,PennController,13,0,test_phase1,NULL,Scale,R4,Choice,Somewhat easy,1771505157258,1,test,8,Neg,A,NULL
1771505605,0a3cc1b92626ea1caa292d3969a9d3ab,PennController,13,0,test_phase1,NULL,PennController,16,_Trial_,End,1771505158143,1,test,8,Neg,A,NULL
1771505605,0a3cc1b92626ea1caa292d3969a9d3ab,PennController,5,0,test_phase1,NULL,PennController,8,_Trial_,Start,1771505158143,1,test,1,Pos,A,NULL
1771505605,0a3cc1b92626ea1caa292d3969a9d3ab,PennController,5,0,test_phase1,NULL,PennController,8,_Header_,Start,1771505158143,1,test,1,Pos,A,NULL
1771505605,0a3cc1b92626ea1caa292d3969a9d3ab,PennController,5,0,test_phase1,NULL,PennController,8,_Header_,End,1771505158395,1,test,1,Pos,A,NULL
1771505605,0a3cc1b92626ea1caa292d3969a9d3ab,PennController,5,0,test_phase1,NULL,Scale,R1B,Choice,Very Good,1771505166534,1,test,1,Pos,A,NULL
1771505605,0a3cc1b92626ea1caa292d3969a9d3ab,PennController,5,0,test_phase1,NULL,Scale,R2,Choice,Probably there is a correct answer,1771505168243,1,test,1,Pos,A,NULL
1771505605,0a3cc1b92626ea1caa292d3969a9d3ab,PennController,5,0,test_phase1,NULL,Scale,R3,Choice,Almost everyone would agree with me,1771505169954,1,test,1,Pos,A,NULL
1771505605,0a3cc1b92626ea1caa292d3969a9d3ab,PennController,5,0,test_phase1,NULL,Scale,R4,Choice,Very easy,1771505170832,1,test,1,Pos,A,NULL
1771505605,0a3cc1b92626ea1caa292d3969a9d3ab,PennController,5,0,test_phase1,NULL,PennController,8,_Trial_,End,1771505171848,1,test,1,Pos,A,NULL
1771505605,0a3cc1b92626ea1caa292d3969a9d3ab,PennController,7,0,test_phase1,NULL,PennController,10,_Trial_,Start,1771505171849,1,test,5,Pos,A,NULL
1771505605,0a3cc1b92626ea1caa292d3969a9d3ab,PennController,7,0,test_phase1,NULL,PennController,10,_Header_,Start,1771505171849,1,test,5,Pos,A,NULL
1771505605,0a3cc1b92626ea1caa292d3969a9d3ab,PennController,7,0,test_phase1,NULL,PennController,10,_Header_,End,1771505172110,1,test,5,Pos,A,NULL
1771505605,0a3cc1b92626ea1caa292d3969a9d3ab,PennController,7,0,test_phase1,NULL,Scale,R1B,Choice,Good,1771505186421,1,test,5,Pos,A,NULL
1771505605,0a3cc1b92626ea1caa292d3969a9d3ab,PennController,7,0,test_phase1,NULL,Scale,R2,Choice,Maybe no correct answer,1771505188004,1,test,5,Pos,A,NULL
1771505605,0a3cc1b92626ea1caa292d3969a9d3ab,PennController,7,0,test_phase1,NULL,Scale,R3,Choice,Most of them would agree with me,1771505190281,1,test,5,Pos,A,NULL
1771505605,0a3cc1b92626ea1caa292d3969a9d3ab,PennController,7,0,test_phase1,NULL,Scale,R4,Choice,Very easy,1771505191230,1,test,5,Pos,A,NULL
1771505605,0a3cc1b92626ea1caa292d3969a9d3ab,PennController,7,0,test_phase1,NULL,PennController,10,_Trial_,End,1771505192099,1,test,5,Pos,A,NULL
1771505605,0a3cc1b92626ea1caa292d3969a9d3ab,PennController,6,0,test_phase1,NULL,PennController,9,_Trial_,Start,1771505192102,1,test,3,Pos,A,NULL
1771505605,0a3cc1b92626ea1caa292d3969a9d3ab,PennController,6,0,test_phase1,NULL,PennController,9,_Header_,Start,1771505192102,1,test,3,Pos,A,NULL
1771505605,0a3cc1b92626ea1caa292d3969a9d3ab,PennController,6,0,test_phase1,NULL,PennController,9,_Header_,End,1771505192362,1,test,3,Pos,A,NULL
1771505605,0a3cc1b92626ea1caa292d3969a9d3ab,PennController,6,0,test_phase1,NULL,Scale,R1B,Choice,Good,1771505204822,1,test,3,Pos,A,NULL
1771505605,0a3cc1b92626ea1caa292d3969a9d3ab,PennController,6,0,test_phase1,NULL,Scale,R2,Choice,Maybe there is a correct answer,1771505206927,1,test,3,Pos,A,NULL
1771505605,0a3cc1b92626ea1caa292d3969a9d3ab,PennController,6,0,test_phase1,NULL,Scale,R3,Choice,Most of them would agree with me,1771505208791,1,test,3,Pos,A,NULL
1771505605,0a3cc1b92626ea1caa292d3969a9d3ab,PennController,6,0,test_phase1,NULL,Scale,R4,Choice,Somewhat easy,1771505209903,1,test,3,Pos,A,NULL
1771505605,0a3cc1b92626ea1caa292d3969a9d3ab,PennController,6,0,test_phase1,NULL,PennController,9,_Trial_,End,1771505210720,1,test,3,Pos,A,NULL
1771505605,0a3cc1b92626ea1caa292d3969a9d3ab,PennController,9,0,test_phase1,NULL,PennController,12,_Trial_,Start,1771505210721,1,test,9,Pos,A,NULL
1771505605,0a3cc1b92626ea1caa292d3969a9d3ab,PennController,9,0,test_phase1,NULL,PennController,12,_Header_,Start,1771505210721,1,test,9,Pos,A,NULL
1771505605,0a3cc1b92626ea1caa292d3969a9d3ab,PennController,9,0,test_phase1,NULL,PennController,12,_Header_,End,1771505210986,1,test,9,Pos,A,NULL
1771505605,0a3cc1b92626ea1caa292d3969a9d3ab,PennController,9,0,test_phase1,NULL,Scale,R1B,Choice,Very Good,1771505222726,1,test,9,Pos,A,NULL
1771505605,0a3cc1b92626ea1caa292d3969a9d3ab,PennController,9,0,test_phase1,NULL,Scale,R2,Choice,Probably there is a correct answer,1771505224446,1,test,9,Pos,A,NULL
1771505605,0a3cc1b92626ea1caa292d3969a9d3ab,PennController,9,0,test_phase1,NULL,Scale,R3,Choice,Most of them would agree with me,1771505226002,1,test,9,Pos,A,NULL
1771505605,0a3cc1b92626ea1caa292d3969a9d3ab,PennController,9,0,test_phase1,NULL,Scale,R4,Choice,Very easy,1771505227321,1,test,9,Pos,A,NULL
1771505605,0a3cc1b92626ea1caa292d3969a9d3ab,PennController,9,0,test_phase1,NULL,PennController,12,_Trial_,End,1771505228223,1,test,9,Pos,A,NULL
1771505605,0a3cc1b92626ea1caa292d3969a9d3ab,PennController,10,0,test_phase1,NULL,PennController,13,_Trial_,Start,1771505228224,1,test,2,Neg,A,NULL
1771505605,0a3cc1b92626ea1caa292d3969a9d3ab,PennController,10,0,test_phase1,NULL,PennController,13,_Header_,Start,1771505228224,1,test,2,Neg,A,NULL
1771505605,0a3cc1b92626ea1caa292d3969a9d3ab,PennController,10,0,test_phase1,NULL,PennController,13,_Header_,End,1771505228482,1,test,2,Neg,A,NULL
1771505605,0a3cc1b92626ea1caa292d3969a9d3ab,PennController,10,0,test_phase1,NULL,Scale,R1B,Choice,Somewhat wrong,1771505237893,1,test,2,Neg,A,NULL
1771505605,0a3cc1b92626ea1caa292d3969a9d3ab,PennController,10,0,test_phase1,NULL,Scale,R2,Choice,Probably there is a correct answer,1771505241521,1,test,2,Neg,A,NULL
1771505605,0a3cc1b92626ea1caa292d3969a9d3ab,PennController,10,0,test_phase1,NULL,Scale,R3,Choice,Most of them would agree with me,1771505243048,1,test,2,Neg,A,NULL
1771505605,0a3cc1b92626ea1caa292d3969a9d3ab,PennController,10,0,test_phase1,NULL,Scale,R4,Choice,Very easy,1771505244385,1,test,2,Neg,A,NULL
1771505605,0a3cc1b92626ea1caa292d3969a9d3ab,PennController,10,0,test_phase1,NULL,PennController,13,_Trial_,End,1771505245546,1,test,2,Neg,A,NULL
1771505605,0a3cc1b92626ea1caa292d3969a9d3ab,PennController,14,0,test_phase1,NULL,PennController,17,_Trial_,Start,1771505245546,1,test,10,Neg,A,NULL
1771505605,0a3cc1b92626ea1caa292d3969a9d3ab,PennController,14,0,test_phase1,NULL,PennController,17,_Header_,Start,1771505245546,1,test,10,Neg,A,NULL
1771505605,0a3cc1b92626ea1caa292d3969a9d3ab,PennController,14,0,test_phase1,NULL,PennController,17,_Header_,End,1771505245803,1,test,10,Neg,A,NULL
1771505605,0a3cc1b92626ea1caa292d3969a9d3ab,PennController,14,0,test_phase1,NULL,Scale,R1B,Choice,Good,1771505262106,1,test,10,Neg,A,NULL
1771505605,0a3cc1b92626ea1caa292d3969a9d3ab,PennController,14,0,test_phase1,NULL,Scale,R2,Choice,Maybe there is a correct answer,1771505263087,1,test,10,Neg,A,NULL
1771505605,0a3cc1b92626ea1caa292d3969a9d3ab,PennController,14,0,test_phase1,NULL,Scale,R3,Choice,Most of them would agree with me,1771505264647,1,test,10,Neg,A,NULL
1771505605,0a3cc1b92626ea1caa292d3969a9d3ab,PennController,14,0,test_phase1,NULL,Scale,R4,Choice,Somewhat easy,1771505266284,1,test,10,Neg,A,NULL
1771505605,0a3cc1b92626ea1caa292d3969a9d3ab,PennController,14,0,test_phase1,NULL,PennController,17,_Trial_,End,1771505267005,1,test,10,Neg,A,NULL
1771505605,0a3cc1b92626ea1caa292d3969a9d3ab,PennController,12,0,test_phase1,NULL,PennController,15,_Trial_,Start,1771505267008,1,test,6,Neg,A,NULL
1771505605,0a3cc1b92626ea1caa292d3969a9d3ab,PennController,12,0,test_phase1,NULL,PennController,15,_Header_,Start,1771505267008,1,test,6,Neg,A,NULL
1771505605,0a3cc1b92626ea1caa292d3969a9d3ab,PennController,12,0,test_phase1,NULL,PennController,15,_Header_,End,1771505267269,1,test,6,Neg,A,NULL
1771505605,0a3cc1b92626ea1caa292d3969a9d3ab,PennController,12,0,test_phase1,NULL,Scale,R1B,Choice,Bad,1771505276282,1,test,6,Neg,A,NULL
1771505605,0a3cc1b92626ea1caa292d3969a9d3ab,PennController,12,0,test_phase1,NULL,Scale,R2,Choice,Maybe there is a correct answer,1771505278626,1,test,6,Neg,A,NULL
1771505605,0a3cc1b92626ea1caa292d3969a9d3ab,PennController,12,0,test_phase1,NULL,Scale,R3,Choice,Some of them would agree with me,1771505281974,1,test,6,Neg,A,NULL
1771505605,0a3cc1b92626ea1caa292d3969a9d3ab,PennController,12,0,test_phase1,NULL,Scale,R4,Choice,Very easy,1771505283266,1,test,6,Neg,A,NULL
1771505605,0a3cc1b92626ea1caa292d3969a9d3ab,PennController,12,0,test_phase1,NULL,PennController,15,_Trial_,End,1771505284097,1,test,6,Neg,A,NULL
1771505605,0a3cc1b92626ea1caa292d3969a9d3ab,PennController,28,0,fillers,NULL,PennController,31,_Trial_,Start,1771505284097,1,filler,14,none,none,NULL
1771505605,0a3cc1b92626ea1caa292d3969a9d3ab,PennController,28,0,fillers,NULL,PennController,31,_Header_,Start,1771505284097,1,filler,14,none,none,NULL
1771505605,0a3cc1b92626ea1caa292d3969a9d3ab,PennController,28,0,fillers,NULL,PennController,31,_Header_,End,1771505284351,1,filler,14,none,none,NULL
1771505605,0a3cc1b92626ea1caa292d3969a9d3ab,PennController,28,0,fillers,NULL,Scale,R1B,Choice,Very bad,1771505290564,1,filler,14,none,none,NULL
1771505605,0a3cc1b92626ea1caa292d3969a9d3ab,PennController,28,0,fillers,NULL,Scale,R2,Choice,Definitely there is a correct answer,1771505291868,1,filler,14,none,none,NULL
1771505605,0a3cc1b92626ea1caa292d3969a9d3ab,PennController,28,0,fillers,NULL,Scale,R3,Choice,Almost everyone would agree with me,1771505293021,1,filler,14,none,none,NULL
1771505605,0a3cc1b92626ea1caa292d3969a9d3ab,PennController,28,0,fillers,NULL,Scale,R4,Choice,Very easy,1771505294008,1,filler,14,none,none,NULL
1771505605,0a3cc1b92626ea1caa292d3969a9d3ab,PennController,28,0,fillers,NULL,PennController,31,_Trial_,End,1771505294933,1,filler,14,none,none,NULL
1771505605,0a3cc1b92626ea1caa292d3969a9d3ab,PennController,18,0,fillers,NULL,PennController,21,_Trial_,Start,1771505294934,1,filler,4,none,none,NULL
1771505605,0a3cc1b92626ea1caa292d3969a9d3ab,PennController,18,0,fillers,NULL,PennController,21,_Header_,Start,1771505294934,1,filler,4,none,none,NULL
1771505605,0a3cc1b92626ea1caa292d3969a9d3ab,PennController,18,0,fillers,NULL,PennController,21,_Header_,End,1771505295195,1,filler,4,none,none,NULL
1771505605,0a3cc1b92626ea1caa292d3969a9d3ab,PennController,18,0,fillers,NULL,Scale,R1B,Choice,Very Good,1771505302259,1,filler,4,none,none,NULL
1771505605,0a3cc1b92626ea1caa292d3969a9d3ab,PennController,18,0,fillers,NULL,Scale,R2,Choice,Probably there is a correct answer,1771505303402,1,filler,4,none,none,NULL
1771505605,0a3cc1b92626ea1caa292d3969a9d3ab,PennController,18,0,fillers,NULL,Scale,R3,Choice,Almost everyone would agree with me,1771505304817,1,filler,4,none,none,NULL
1771505605,0a3cc1b92626ea1caa292d3969a9d3ab,PennController,18,0,fillers,NULL,Scale,R4,Choice,Very easy,1771505305969,1,filler,4,none,none,NULL
1771505605,0a3cc1b92626ea1caa292d3969a9d3ab,PennController,18,0,fillers,NULL,PennController,21,_Trial_,End,1771505307329,1,filler,4,none,none,NULL
1771505605,0a3cc1b92626ea1caa292d3969a9d3ab,PennController,19,0,fillers,NULL,PennController,22,_Trial_,Start,1771505307330,1,filler,5,none,none,NULL
1771505605,0a3cc1b92626ea1caa292d3969a9d3ab,PennController,19,0,fillers,NULL,PennController,22,_Header_,Start,1771505307330,1,filler,5,none,none,NULL
1771505605,0a3cc1b92626ea1caa292d3969a9d3ab,PennController,19,0,fillers,NULL,PennController,22,_Header_,End,1771505307589,1,filler,5,none,none,NULL
1771505605,0a3cc1b92626ea1caa292d3969a9d3ab,PennController,19,0,fillers,NULL,Scale,R1B,Choice,Bad,1771505311028,1,filler,5,none,none,NULL
1771505605,0a3cc1b92626ea1caa292d3969a9d3ab,PennController,19,0,fillers,NULL,Scale,R2,Choice,Probably there is a correct answer,1771505312801,1,filler,5,none,none,NULL
1771505605,0a3cc1b92626ea1caa292d3969a9d3ab,PennController,19,0,fillers,NULL,Scale,R3,Choice,Almost everyone would agree with me,1771505314266,1,filler,5,none,none,NULL
1771505605,0a3cc1b92626ea1caa292d3969a9d3ab,PennController,19,0,fillers,NULL,Scale,R4,Choice,Very easy,1771505315018,1,filler,5,none,none,NULL
1771505605,0a3cc1b92626ea1caa292d3969a9d3ab,PennController,19,0,fillers,NULL,PennController,22,_Trial_,End,1771505316108,1,filler,5,none,none,NULL
1771505605,0a3cc1b92626ea1caa292d3969a9d3ab,PennController,17,0,fillers,NULL,PennController,20,_Trial_,Start,1771505316111,1,filler,3,none,none,NULL
1771505605,0a3cc1b92626ea1caa292d3969a9d3ab,PennController,17,0,fillers,NULL,PennController,20,_Header_,Start,1771505316111,1,filler,3,none,none,NULL
1771505605,0a3cc1b92626ea1caa292d3969a9d3ab,PennController,17,0,fillers,NULL,PennController,20,_Header_,End,1771505316365,1,filler,3,none,none,NULL
1771505605,0a3cc1b92626ea1caa292d3969a9d3ab,PennController,17,0,fillers,NULL,Scale,R1B,Choice,Good,1771505322181,1,filler,3,none,none,NULL
1771505605,0a3cc1b92626ea1caa292d3969a9d3ab,PennController,17,0,fillers,NULL,Scale,R2,Choice,Probably no correct answer,1771505325626,1,filler,3,none,none,NULL
1771505605,0a3cc1b92626ea1caa292d3969a9d3ab,PennController,17,0,fillers,NULL,Scale,R3,Choice,Some of them would agree with me,1771505327132,1,filler,3,none,none,NULL
1771505605,0a3cc1b92626ea1caa292d3969a9d3ab,PennController,17,0,fillers,NULL,Scale,R4,Choice,Very easy,1771505327933,1,filler,3,none,none,NULL
1771505605,0a3cc1b92626ea1caa292d3969a9d3ab,PennController,17,0,fillers,NULL,PennController,20,_Trial_,End,1771505328692,1,filler,3,none,none,NULL
1771505605,0a3cc1b92626ea1caa292d3969a9d3ab,PennController,20,0,fillers,NULL,PennController,23,_Trial_,Start,1771505328693,1,filler,6,none,none,NULL
1771505605,0a3cc1b92626ea1caa292d3969a9d3ab,PennController,20,0,fillers,NULL,PennController,23,_Header_,Start,1771505328693,1,filler,6,none,none,NULL
1771505605,0a3cc1b92626ea1caa292d3969a9d3ab,PennController,20,0,fillers,NULL,PennController,23,_Header_,End,1771505328957,1,filler,6,none,none,NULL
1771505605,0a3cc1b92626ea1caa292d3969a9d3ab,PennController,20,0,fillers,NULL,Scale,R1B,Choice,Somewhat wrong,1771505335822,1,filler,6,none,none,NULL
1771505605,0a3cc1b92626ea1caa292d3969a9d3ab,PennController,20,0,fillers,NULL,Scale,R2,Choice,Maybe there is a correct answer,1771505337700,1,filler,6,none,none,NULL
1771505605,0a3cc1b92626ea1caa292d3969a9d3ab,PennController,20,0,fillers,NULL,Scale,R3,Choice,Some of them would agree with me,1771505339976,1,filler,6,none,none,NULL
1771505605,0a3cc1b92626ea1caa292d3969a9d3ab,PennController,20,0,fillers,NULL,Scale,R4,Choice,Very easy,1771505340857,1,filler,6,none,none,NULL
1771505605,0a3cc1b92626ea1caa292d3969a9d3ab,PennController,20,0,fillers,NULL,PennController,23,_Trial_,End,1771505341634,1,filler,6,none,none,NULL
1771505605,0a3cc1b92626ea1caa292d3969a9d3ab,PennController,21,0,fillers,NULL,PennController,24,_Trial_,Start,1771505341635,1,filler,7,none,none,NULL
1771505605,0a3cc1b92626ea1caa292d3969a9d3ab,PennController,21,0,fillers,NULL,PennController,24,_Header_,Start,1771505341635,1,filler,7,none,none,NULL
1771505605,0a3cc1b92626ea1caa292d3969a9d3ab,PennController,21,0,fillers,NULL,PennController,24,_Header_,End,1771505341898,1,filler,7,none,none,NULL
1771505605,0a3cc1b92626ea1caa292d3969a9d3ab,PennController,21,0,fillers,NULL,Scale,R1B,Choice,Somewhat wrong,1771505350179,1,filler,7,none,none,NULL
1771505605,0a3cc1b92626ea1caa292d3969a9d3ab,PennController,21,0,fillers,NULL,Scale,R2,Choice,Maybe there is a correct answer,1771505352022,1,filler,7,none,none,NULL
1771505605,0a3cc1b92626ea1caa292d3969a9d3ab,PennController,21,0,fillers,NULL,Scale,R3,Choice,Most of them would agree with me,1771505353776,1,filler,7,none,none,NULL
1771505605,0a3cc1b92626ea1caa292d3969a9d3ab,PennController,21,0,fillers,NULL,Scale,R4,Choice,Somewhat easy,1771505355153,1,filler,7,none,none,NULL
1771505605,0a3cc1b92626ea1caa292d3969a9d3ab,PennController,21,0,fillers,NULL,PennController,24,_Trial_,End,1771505355977,1,filler,7,none,none,NULL
1771505605,0a3cc1b92626ea1caa292d3969a9d3ab,PennController,25,0,fillers,NULL,PennController,28,_Trial_,Start,1771505355978,1,filler,11,none,none,NULL
1771505605,0a3cc1b92626ea1caa292d3969a9d3ab,PennController,25,0,fillers,NULL,PennController,28,_Header_,Start,1771505355978,1,filler,11,none,none,NULL
1771505605,0a3cc1b92626ea1caa292d3969a9d3ab,PennController,25,0,fillers,NULL,PennController,28,_Header_,End,1771505356232,1,filler,11,none,none,NULL
1771505605,0a3cc1b92626ea1caa292d3969a9d3ab,PennController,25,0,fillers,NULL,Scale,R1B,Choice,Bad,1771505362745,1,filler,11,none,none,NULL
1771505605,0a3cc1b92626ea1caa292d3969a9d3ab,PennController,25,0,fillers,NULL,Scale,R2,Choice,Definitely there is a correct answer,1771505366304,1,filler,11,none,none,NULL
1771505605,0a3cc1b92626ea1caa292d3969a9d3ab,PennController,25,0,fillers,NULL,Scale,R3,Choice,Most of them would agree with me,1771505367481,1,filler,11,none,none,NULL
1771505605,0a3cc1b92626ea1caa292d3969a9d3ab,PennController,25,0,fillers,NULL,Scale,R4,Choice,Very easy,1771505368228,1,filler,11,none,none,NULL
1771505605,0a3cc1b92626ea1caa292d3969a9d3ab,PennController,25,0,fillers,NULL,PennController,28,_Trial_,End,1771505369028,1,filler,11,none,none,NULL
1771505605,0a3cc1b92626ea1caa292d3969a9d3ab,PennController,15,0,fillers,NULL,PennController,18,_Trial_,Start,1771505369029,1,filler,1,none,none,NULL
1771505605,0a3cc1b92626ea1caa292d3969a9d3ab,PennController,15,0,fillers,NULL,PennController,18,_Header_,Start,1771505369029,1,filler,1,none,none,NULL
1771505605,0a3cc1b92626ea1caa292d3969a9d3ab,PennController,15,0,fillers,NULL,PennController,18,_Header_,End,1771505369291,1,filler,1,none,none,NULL
1771505605,0a3cc1b92626ea1caa292d3969a9d3ab,PennController,15,0,fillers,NULL,Scale,R1B,Choice,Somewhat wrong,1771505373424,1,filler,1,none,none,NULL
1771505605,0a3cc1b92626ea1caa292d3969a9d3ab,PennController,15,0,fillers,NULL,Scale,R2,Choice,Maybe there is a correct answer,1771505376327,1,filler,1,none,none,NULL
1771505605,0a3cc1b92626ea1caa292d3969a9d3ab,PennController,15,0,fillers,NULL,Scale,R3,Choice,Some of them would agree with me,1771505378047,1,filler,1,none,none,NULL
1771505605,0a3cc1b92626ea1caa292d3969a9d3ab,PennController,15,0,fillers,NULL,Scale,R4,Choice,Somewhat easy,1771505379453,1,filler,1,none,none,NULL
1771505605,0a3cc1b92626ea1caa292d3969a9d3ab,PennController,15,0,fillers,NULL,PennController,18,_Trial_,End,1771505380361,1,filler,1,none,none,NULL
1771505605,0a3cc1b92626ea1caa292d3969a9d3ab,PennController,24,0,fillers,NULL,PennController,27,_Trial_,Start,1771505380365,1,filler,10,none,none,NULL
1771505605,0a3cc1b92626ea1caa292d3969a9d3ab,PennController,24,0,fillers,NULL,PennController,27,_Header_,Start,1771505380365,1,filler,10,none,none,NULL
1771505605,0a3cc1b92626ea1caa292d3969a9d3ab,PennController,24,0,fillers,NULL,PennController,27,_Header_,End,1771505380621,1,filler,10,none,none,NULL
1771505605,0a3cc1b92626ea1caa292d3969a9d3ab,PennController,24,0,fillers,NULL,Scale,R1B,Choice,Bad,1771505396707,1,filler,10,none,none,NULL
1771505605,0a3cc1b92626ea1caa292d3969a9d3ab,PennController,24,0,fillers,NULL,Scale,R2,Choice,Probably no correct answer,1771505398677,1,filler,10,none,none,NULL
1771505605,0a3cc1b92626ea1caa292d3969a9d3ab,PennController,24,0,fillers,NULL,Scale,R3,Choice,Some of them would agree with me,1771505400116,1,filler,10,none,none,NULL
1771505605,0a3cc1b92626ea1caa292d3969a9d3ab,PennController,24,0,fillers,NULL,Scale,R4,Choice,A little easy,1771505401269,1,filler,10,none,none,NULL
1771505605,0a3cc1b92626ea1caa292d3969a9d3ab,PennController,24,0,fillers,NULL,PennController,27,_Trial_,End,1771505402238,1,filler,10,none,none,NULL
1771505605,0a3cc1b92626ea1caa292d3969a9d3ab,PennController,27,0,fillers,NULL,PennController,30,_Trial_,Start,1771505402239,1,filler,13,none,none,NULL
1771505605,0a3cc1b92626ea1caa292d3969a9d3ab,PennController,27,0,fillers,NULL,PennController,30,_Header_,Start,1771505402239,1,filler,13,none,none,NULL
1771505605,0a3cc1b92626ea1caa292d3969a9d3ab,PennController,27,0,fillers,NULL,PennController,30,_Header_,End,1771505402498,1,filler,13,none,none,NULL
1771505605,0a3cc1b92626ea1caa292d3969a9d3ab,PennController,27,0,fillers,NULL,Scale,R1B,Choice,Very bad,1771505409440,1,filler,13,none,none,NULL
1771505605,0a3cc1b92626ea1caa292d3969a9d3ab,PennController,27,0,fillers,NULL,Scale,R2,Choice,Probably there is a correct answer,1771505411126,1,filler,13,none,none,NULL
1771505605,0a3cc1b92626ea1caa292d3969a9d3ab,PennController,27,0,fillers,NULL,Scale,R3,Choice,Almost everyone would agree with me,1771505413066,1,filler,13,none,none,NULL
1771505605,0a3cc1b92626ea1caa292d3969a9d3ab,PennController,27,0,fillers,NULL,Scale,R4,Choice,Very easy,1771505413890,1,filler,13,none,none,NULL
1771505605,0a3cc1b92626ea1caa292d3969a9d3ab,PennController,27,0,fillers,NULL,PennController,30,_Trial_,End,1771505414807,1,filler,13,none,none,NULL
1771505605,0a3cc1b92626ea1caa292d3969a9d3ab,PennController,26,0,fillers,NULL,PennController,29,_Trial_,Start,1771505414809,1,filler,12,none,none,NULL
1771505605,0a3cc1b92626ea1caa292d3969a9d3ab,PennController,26,0,fillers,NULL,PennController,29,_Header_,Start,1771505414809,1,filler,12,none,none,NULL
1771505605,0a3cc1b92626ea1caa292d3969a9d3ab,PennController,26,0,fillers,NULL,PennController,29,_Header_,End,1771505415073,1,filler,12,none,none,NULL
1771505605,0a3cc1b92626ea1caa292d3969a9d3ab,PennController,26,0,fillers,NULL,Scale,R1B,Choice,Somewhat wrong,1771505423781,1,filler,12,none,none,NULL
1771505605,0a3cc1b92626ea1caa292d3969a9d3ab,PennController,26,0,fillers,NULL,Scale,R2,Choice,Probably no correct answer,1771505426736,1,filler,12,none,none,NULL
1771505605,0a3cc1b92626ea1caa292d3969a9d3ab,PennController,26,0,fillers,NULL,Scale,R3,Choice,Some of them would disagree with me,1771505428606,1,filler,12,none,none,NULL
1771505605,0a3cc1b92626ea1caa292d3969a9d3ab,PennController,26,0,fillers,NULL,Scale,R4,Choice,Somewhat difficult,1771505430731,1,filler,12,none,none,NULL
1771505605,0a3cc1b92626ea1caa292d3969a9d3ab,PennController,26,0,fillers,NULL,PennController,29,_Trial_,End,1771505431523,1,filler,12,none,none,NULL
1771505605,0a3cc1b92626ea1caa292d3969a9d3ab,PennController,16,0,fillers,NULL,PennController,19,_Trial_,Start,1771505431524,1,filler,2,none,none,NULL
1771505605,0a3cc1b92626ea1caa292d3969a9d3ab,PennController,16,0,fillers,NULL,PennController,19,_Header_,Start,1771505431524,1,filler,2,none,none,NULL
1771505605,0a3cc1b92626ea1caa292d3969a9d3ab,PennController,16,0,fillers,NULL,PennController,19,_Header_,End,1771505431775,1,filler,2,none,none,NULL
1771505605,0a3cc1b92626ea1caa292d3969a9d3ab,PennController,16,0,fillers,NULL,Scale,R1B,Choice,Good,1771505436691,1,filler,2,none,none,NULL
1771505605,0a3cc1b92626ea1caa292d3969a9d3ab,PennController,16,0,fillers,NULL,Scale,R2,Choice,Maybe there is a correct answer,1771505438818,1,filler,2,none,none,NULL
1771505605,0a3cc1b92626ea1caa292d3969a9d3ab,PennController,16,0,fillers,NULL,Scale,R3,Choice,Most of them would agree with me,1771505440712,1,filler,2,none,none,NULL
1771505605,0a3cc1b92626ea1caa292d3969a9d3ab,PennController,16,0,fillers,NULL,Scale,R4,Choice,Somewhat easy,1771505442261,1,filler,2,none,none,NULL
1771505605,0a3cc1b92626ea1caa292d3969a9d3ab,PennController,16,0,fillers,NULL,PennController,19,_Trial_,End,1771505443467,1,filler,2,none,none,NULL
1771505605,0a3cc1b92626ea1caa292d3969a9d3ab,PennController,23,0,fillers,NULL,PennController,26,_Trial_,Start,1771505443469,1,filler,9,none,none,NULL
1771505605,0a3cc1b92626ea1caa292d3969a9d3ab,PennController,23,0,fillers,NULL,PennController,26,_Header_,Start,1771505443469,1,filler,9,none,none,NULL
1771505605,0a3cc1b92626ea1caa292d3969a9d3ab,PennController,23,0,fillers,NULL,PennController,26,_Header_,End,1771505443725,1,filler,9,none,none,NULL
1771505605,0a3cc1b92626ea1caa292d3969a9d3ab,PennController,23,0,fillers,NULL,Scale,R1B,Choice,Very Good,1771505451298,1,filler,9,none,none,NULL
1771505605,0a3cc1b92626ea1caa292d3969a9d3ab,PennController,23,0,fillers,NULL,Scale,R2,Choice,Probably no correct answer,1771505453876,1,filler,9,none,none,NULL
1771505605,0a3cc1b92626ea1caa292d3969a9d3ab,PennController,23,0,fillers,NULL,Scale,R3,Choice,Some of them would agree with me,1771505455481,1,filler,9,none,none,NULL
1771505605,0a3cc1b92626ea1caa292d3969a9d3ab,PennController,23,0,fillers,NULL,Scale,R4,Choice,Somewhat difficult,1771505457026,1,filler,9,none,none,NULL
1771505605,0a3cc1b92626ea1caa292d3969a9d3ab,PennController,23,0,fillers,NULL,PennController,26,_Trial_,End,1771505457720,1,filler,9,none,none,NULL
1771505605,0a3cc1b92626ea1caa292d3969a9d3ab,PennController,22,0,fillers,NULL,PennController,25,_Trial_,Start,1771505457724,1,filler,8,none,none,NULL
1771505605,0a3cc1b92626ea1caa292d3969a9d3ab,PennController,22,0,fillers,NULL,PennController,25,_Header_,Start,1771505457724,1,filler,8,none,none,NULL
1771505605,0a3cc1b92626ea1caa292d3969a9d3ab,PennController,22,0,fillers,NULL,PennController,25,_Header_,End,1771505457984,1,filler,8,none,none,NULL
1771505605,0a3cc1b92626ea1caa292d3969a9d3ab,PennController,22,0,fillers,NULL,Scale,R1B,Choice,Bad,1771505464595,1,filler,8,none,none,NULL
1771505605,0a3cc1b92626ea1caa292d3969a9d3ab,PennController,22,0,fillers,NULL,Scale,R2,Choice,Probably there is a correct answer,1771505466051,1,filler,8,none,none,NULL
1771505605,0a3cc1b92626ea1caa292d3969a9d3ab,PennController,22,0,fillers,NULL,Scale,R3,Choice,Almost everyone would agree with me,1771505466716,1,filler,8,none,none,NULL
1771505605,0a3cc1b92626ea1caa292d3969a9d3ab,PennController,22,0,fillers,NULL,Scale,R4,Choice,Very easy,1771505467962,1,filler,8,none,none,NULL
1771505605,0a3cc1b92626ea1caa292d3969a9d3ab,PennController,22,0,fillers,NULL,PennController,25,_Trial_,End,1771505468828,1,filler,8,none,none,NULL
# 13. Comments.
1771505605,0a3cc1b92626ea1caa292d3969a9d3ab,PennController,42,0,instructions2,NULL,PennController,5,_Trial_,Start,1771505468829,NULL
1771505605,0a3cc1b92626ea1caa292d3969a9d3ab,PennController,42,0,instructions2,NULL,PennController,5,_Header_,Start,1771505468829,NULL
1771505605,0a3cc1b92626ea1caa292d3969a9d3ab,PennController,42,0,instructions2,NULL,PennController,5,_Header_,End,1771505469086,NULL
1771505605,0a3cc1b92626ea1caa292d3969a9d3ab,PennController,42,0,instructions2,NULL,PennController,5,_Trial_,End,1771505474514,NULL
# 13. Phase.
# 14. TrialType.
# 15. Number.
# 16. Valence.
# 17. Group.
# 18. Comments.
1771505605,0a3cc1b92626ea1caa292d3969a9d3ab,PennController,36,0,test_phase2,NULL,PennController,39,_Trial_,Start,1771505474515,2,test,6,Neg,A,NULL
1771505605,0a3cc1b92626ea1caa292d3969a9d3ab,PennController,36,0,test_phase2,NULL,PennController,39,_Header_,Start,1771505474515,2,test,6,Neg,A,NULL
1771505605,0a3cc1b92626ea1caa292d3969a9d3ab,PennController,36,0,test_phase2,NULL,PennController,39,_Header_,End,1771505474775,2,test,6,Neg,A,NULL
1771505605,0a3cc1b92626ea1caa292d3969a9d3ab,PennController,36,0,test_phase2,NULL,Scale,R5,Choice,The other person is likely mistaken,1771505484103,2,test,6,Neg,A,NULL
1771505605,0a3cc1b92626ea1caa292d3969a9d3ab,PennController,36,0,test_phase2,NULL,Scale,R6,Choice,Mildly comfortable,1771505488439,2,test,6,Neg,A,NULL
1771505605,0a3cc1b92626ea1caa292d3969a9d3ab,PennController,36,0,test_phase2,NULL,PennController,39,_Trial_,End,1771505489209,2,test,6,Neg,A,NULL
1771505605,0a3cc1b92626ea1caa292d3969a9d3ab,PennController,31,0,test_phase2,NULL,PennController,34,_Trial_,Start,1771505489210,2,test,5,Pos,A,NULL
1771505605,0a3cc1b92626ea1caa292d3969a9d3ab,PennController,31,0,test_phase2,NULL,PennController,34,_Header_,Start,1771505489210,2,test,5,Pos,A,NULL
1771505605,0a3cc1b92626ea1caa292d3969a9d3ab,PennController,31,0,test_phase2,NULL,PennController,34,_Header_,End,1771505489469,2,test,5,Pos,A,NULL
1771505605,0a3cc1b92626ea1caa292d3969a9d3ab,PennController,31,0,test_phase2,NULL,Scale,R5,Choice,Maybe neither of us needs to be mistaken,1771505497470,2,test,5,Pos,A,NULL
1771505605,0a3cc1b92626ea1caa292d3969a9d3ab,PennController,31,0,test_phase2,NULL,Scale,R6,Choice,Mildly comfortable,1771505499155,2,test,5,Pos,A,NULL
1771505605,0a3cc1b92626ea1caa292d3969a9d3ab,PennController,31,0,test_phase2,NULL,PennController,34,_Trial_,End,1771505499941,2,test,5,Pos,A,NULL
1771505605,0a3cc1b92626ea1caa292d3969a9d3ab,PennController,37,0,test_phase2,NULL,PennController,40,_Trial_,Start,1771505499942,2,test,8,Neg,A,NULL
1771505605,0a3cc1b92626ea1caa292d3969a9d3ab,PennController,37,0,test_phase2,NULL,PennController,40,_Header_,Start,1771505499942,2,test,8,Neg,A,NULL
1771505605,0a3cc1b92626ea1caa292d3969a9d3ab,PennController,37,0,test_phase2,NULL,PennController,40,_Header_,End,1771505500192,2,test,8,Neg,A,NULL
1771505605,0a3cc1b92626ea1caa292d3969a9d3ab,PennController,37,0,test_phase2,NULL,Scale,R5,Choice,Probably neither of us needs to be mistaken,1771505505449,2,test,8,Neg,A,NULL
1771505605,0a3cc1b92626ea1caa292d3969a9d3ab,PennController,37,0,test_phase2,NULL,Scale,R6,Choice,Very comfortable,1771505507048,2,test,8,Neg,A,NULL
1771505605,0a3cc1b92626ea1caa292d3969a9d3ab,PennController,37,0,test_phase2,NULL,PennController,40,_Trial_,End,1771505507914,2,test,8,Neg,A,NULL
1771505605,0a3cc1b92626ea1caa292d3969a9d3ab,PennController,38,0,test_phase2,NULL,PennController,41,_Trial_,Start,1771505507916,2,test,10,Neg,A,NULL
1771505605,0a3cc1b92626ea1caa292d3969a9d3ab,PennController,38,0,test_phase2,NULL,PennController,41,_Header_,Start,1771505507916,2,test,10,Neg,A,NULL
1771505605,0a3cc1b92626ea1caa292d3969a9d3ab,PennController,38,0,test_phase2,NULL,PennController,41,_Header_,End,1771505508173,2,test,10,Neg,A,NULL
1771505605,0a3cc1b92626ea1caa292d3969a9d3ab,PennController,38,0,test_phase2,NULL,Scale,R5,Choice,Neither of us needs to be mistaken,1771505515134,2,test,10,Neg,A,NULL
1771505605,0a3cc1b92626ea1caa292d3969a9d3ab,PennController,38,0,test_phase2,NULL,Scale,R6,Choice,Very comfortable,1771505518281,2,test,10,Neg,A,NULL
1771505605,0a3cc1b92626ea1caa292d3969a9d3ab,PennController,38,0,test_phase2,NULL,PennController,41,_Trial_,End,1771505519076,2,test,10,Neg,A,NULL
1771505605,0a3cc1b92626ea1caa292d3969a9d3ab,PennController,33,0,test_phase2,NULL,PennController,36,_Trial_,Start,1771505519079,2,test,9,Pos,A,NULL
1771505605,0a3cc1b92626ea1caa292d3969a9d3ab,PennController,33,0,test_phase2,NULL,PennController,36,_Header_,Start,1771505519079,2,test,9,Pos,A,NULL
1771505605,0a3cc1b92626ea1caa292d3969a9d3ab,PennController,33,0,test_phase2,NULL,PennController,36,_Header_,End,1771505519335,2,test,9,Pos,A,NULL
1771505605,0a3cc1b92626ea1caa292d3969a9d3ab,PennController,33,0,test_phase2,NULL,Scale,R5,Choice,Neither of us needs to be mistaken,1771505524700,2,test,9,Pos,A,NULL
1771505605,0a3cc1b92626ea1caa292d3969a9d3ab,PennController,33,0,test_phase2,NULL,Scale,R6,Choice,Extremely comfortable,1771505526508,2,test,9,Pos,A,NULL
1771505605,0a3cc1b92626ea1caa292d3969a9d3ab,PennController,33,0,test_phase2,NULL,PennController,36,_Trial_,End,1771505527189,2,test,9,Pos,A,NULL
1771505605,0a3cc1b92626ea1caa292d3969a9d3ab,PennController,29,0,test_phase2,NULL,PennController,32,_Trial_,Start,1771505527190,2,test,1,Pos,A,NULL
1771505605,0a3cc1b92626ea1caa292d3969a9d3ab,PennController,29,0,test_phase2,NULL,PennController,32,_Header_,Start,1771505527190,2,test,1,Pos,A,NULL
1771505605,0a3cc1b92626ea1caa292d3969a9d3ab,PennController,29,0,test_phase2,NULL,PennController,32,_Header_,End,1771505527447,2,test,1,Pos,A,NULL
1771505605,0a3cc1b92626ea1caa292d3969a9d3ab,PennController,29,0,test_phase2,NULL,Scale,R5,Choice,Neither of us needs to be mistaken,1771505531489,2,test,1,Pos,A,NULL
1771505605,0a3cc1b92626ea1caa292d3969a9d3ab,PennController,29,0,test_phase2,NULL,Scale,R6,Choice,Extremely comfortable,1771505532914,2,test,1,Pos,A,NULL
1771505605,0a3cc1b92626ea1caa292d3969a9d3ab,PennController,29,0,test_phase2,NULL,PennController,32,_Trial_,End,1771505533751,2,test,1,Pos,A,NULL
1771505605,0a3cc1b92626ea1caa292d3969a9d3ab,PennController,32,0,test_phase2,NULL,PennController,35,_Trial_,Start,1771505533753,2,test,7,Pos,A,NULL
1771505605,0a3cc1b92626ea1caa292d3969a9d3ab,PennController,32,0,test_phase2,NULL,PennController,35,_Header_,Start,1771505533753,2,test,7,Pos,A,NULL
1771505605,0a3cc1b92626ea1caa292d3969a9d3ab,PennController,32,0,test_phase2,NULL,PennController,35,_Header_,End,1771505534015,2,test,7,Pos,A,NULL
1771505605,0a3cc1b92626ea1caa292d3969a9d3ab,PennController,32,0,test_phase2,NULL,Scale,R5,Choice,Maybe neither of us needs to be mistaken,1771505541129,2,test,7,Pos,A,NULL
1771505605,0a3cc1b92626ea1caa292d3969a9d3ab,PennController,32,0,test_phase2,NULL,Scale,R6,Choice,Mildly comfortable,1771505547838,2,test,7,Pos,A,NULL
1771505605,0a3cc1b92626ea1caa292d3969a9d3ab,PennController,32,0,test_phase2,NULL,PennController,35,_Trial_,End,1771505548632,2,test,7,Pos,A,NULL
1771505605,0a3cc1b92626ea1caa292d3969a9d3ab,PennController,35,0,test_phase2,NULL,PennController,38,_Trial_,Start,1771505548632,2,test,4,Neg,A,NULL
1771505605,0a3cc1b92626ea1caa292d3969a9d3ab,PennController,35,0,test_phase2,NULL,PennController,38,_Header_,Start,1771505548632,2,test,4,Neg,A,NULL
1771505605,0a3cc1b92626ea1caa292d3969a9d3ab,PennController,35,0,test_phase2,NULL,PennController,38,_Header_,End,1771505548887,2,test,4,Neg,A,NULL
1771505605,0a3cc1b92626ea1caa292d3969a9d3ab,PennController,35,0,test_phase2,NULL,Scale,R5,Choice,Maybe neither of us needs to be mistaken,1771505554024,2,test,4,Neg,A,NULL
1771505605,0a3cc1b92626ea1caa292d3969a9d3ab,PennController,35,0,test_phase2,NULL,Scale,R6,Choice,Mildly comfortable,1771505555892,2,test,4,Neg,A,NULL
1771505605,0a3cc1b92626ea1caa292d3969a9d3ab,PennController,35,0,test_phase2,NULL,PennController,38,_Trial_,End,1771505556710,2,test,4,Neg,A,NULL
1771505605,0a3cc1b92626ea1caa292d3969a9d3ab,PennController,34,0,test_phase2,NULL,PennController,37,_Trial_,Start,1771505556711,2,test,2,Neg,A,NULL
1771505605,0a3cc1b92626ea1caa292d3969a9d3ab,PennController,34,0,test_phase2,NULL,PennController,37,_Header_,Start,1771505556711,2,test,2,Neg,A,NULL
1771505605,0a3cc1b92626ea1caa292d3969a9d3ab,PennController,34,0,test_phase2,NULL,PennController,37,_Header_,End,1771505556975,2,test,2,Neg,A,NULL
1771505605,0a3cc1b92626ea1caa292d3969a9d3ab,PennController,34,0,test_phase2,NULL,Scale,R5,Choice,Maybe neither of us needs to be mistaken,1771505560857,2,test,2,Neg,A,NULL
1771505605,0a3cc1b92626ea1caa292d3969a9d3ab,PennController,34,0,test_phase2,NULL,Scale,R6,Choice,Mildly comfortable,1771505562624,2,test,2,Neg,A,NULL
1771505605,0a3cc1b92626ea1caa292d3969a9d3ab,PennController,34,0,test_phase2,NULL,PennController,37,_Trial_,End,1771505563491,2,test,2,Neg,A,NULL
1771505605,0a3cc1b92626ea1caa292d3969a9d3ab,PennController,30,0,test_phase2,NULL,PennController,33,_Trial_,Start,1771505563491,2,test,3,Pos,A,NULL
1771505605,0a3cc1b92626ea1caa292d3969a9d3ab,PennController,30,0,test_phase2,NULL,PennController,33,_Header_,Start,1771505563491,2,test,3,Pos,A,NULL
1771505605,0a3cc1b92626ea1caa292d3969a9d3ab,PennController,30,0,test_phase2,NULL,PennController,33,_Header_,End,1771505563747,2,test,3,Pos,A,NULL
1771505605,0a3cc1b92626ea1caa292d3969a9d3ab,PennController,30,0,test_phase2,NULL,Scale,R5,Choice,Maybe neither of us needs to be mistaken,1771505568039,2,test,3,Pos,A,NULL
1771505605,0a3cc1b92626ea1caa292d3969a9d3ab,PennController,30,0,test_phase2,NULL,Scale,R6,Choice,Mildly comfortable,1771505569701,2,test,3,Pos,A,NULL
1771505605,0a3cc1b92626ea1caa292d3969a9d3ab,PennController,30,0,test_phase2,NULL,PennController,33,_Trial_,End,1771505570422,2,test,3,Pos,A,NULL
# 13. Comments.
1771505605,0a3cc1b92626ea1caa292d3969a9d3ab,PennController,40,0,demo,NULL,PennController,3,_Trial_,Start,1771505570425,NULL
1771505605,0a3cc1b92626ea1caa292d3969a9d3ab,PennController,40,0,demo,NULL,PennController,3,_Header_,Start,1771505570425,NULL
1771505605,0a3cc1b92626ea1caa292d3969a9d3ab,PennController,40,0,demo,NULL,PennController,3,_Header_,End,1771505570687,NULL
1771505605,0a3cc1b92626ea1caa292d3969a9d3ab,PennController,40,0,demo,NULL,Html,bg_form,country,UK,1771505604607,text input
1771505605,0a3cc1b92626ea1caa292d3969a9d3ab,PennController,40,0,demo,NULL,Html,bg_form,lang1,English,1771505604607,text input
1771505605,0a3cc1b92626ea1caa292d3969a9d3ab,PennController,40,0,demo,NULL,Html,bg_form,lang2,,1771505604607,text input
1771505605,0a3cc1b92626ea1caa292d3969a9d3ab,PennController,40,0,demo,NULL,Html,bg_form,lang3,,1771505604607,text input
1771505605,0a3cc1b92626ea1caa292d3969a9d3ab,PennController,40,0,demo,NULL,Html,bg_form,moral_reason,unchecked,1771505604607,checkbox
1771505605,0a3cc1b92626ea1caa292d3969a9d3ab,PennController,40,0,demo,NULL,Html,bg_form,moral_reason,checked,1771505604607,checkbox
1771505605,0a3cc1b92626ea1caa292d3969a9d3ab,PennController,40,0,demo,NULL,Html,bg_form,moral_reason,unchecked,1771505604607,checkbox
1771505605,0a3cc1b92626ea1caa292d3969a9d3ab,PennController,40,0,demo,NULL,Html,bg_form,moral_reason,unchecked,1771505604607,checkbox
1771505605,0a3cc1b92626ea1caa292d3969a9d3ab,PennController,40,0,demo,NULL,Html,bg_form,religion,unchecked,1771505604607,checkbox
1771505605,0a3cc1b92626ea1caa292d3969a9d3ab,PennController,40,0,demo,NULL,Html,bg_form,religion,unchecked,1771505604607,checkbox
1771505605,0a3cc1b92626ea1caa292d3969a9d3ab,PennController,40,0,demo,NULL,Html,bg_form,religion,unchecked,1771505604607,checkbox
1771505605,0a3cc1b92626ea1caa292d3969a9d3ab,PennController,40,0,demo,NULL,Html,bg_form,religion,unchecked,1771505604607,checkbox
1771505605,0a3cc1b92626ea1caa292d3969a9d3ab,PennController,40,0,demo,NULL,Html,bg_form,religion,unchecked,1771505604607,checkbox
1771505605,0a3cc1b92626ea1caa292d3969a9d3ab,PennController,40,0,demo,NULL,Html,bg_form,religion,unchecked,1771505604607,checkbox
1771505605,0a3cc1b92626ea1caa292d3969a9d3ab,PennController,40,0,demo,NULL,Html,bg_form,religion,unchecked,1771505604607,checkbox
1771505605,0a3cc1b92626ea1caa292d3969a9d3ab,PennController,40,0,demo,NULL,Html,bg_form,religion,unchecked,1771505604607,checkbox
1771505605,0a3cc1b92626ea1caa292d3969a9d3ab,PennController,40,0,demo,NULL,Html,bg_form,religion,checked,1771505604607,checkbox
1771505605,0a3cc1b92626ea1caa292d3969a9d3ab,PennController,40,0,demo,NULL,Html,bg_form,religion,unchecked,1771505604607,checkbox
1771505605,0a3cc1b92626ea1caa292d3969a9d3ab,PennController,40,0,demo,NULL,Html,bg_form,lang4,unchecked,1771505604607,checkbox
1771505605,0a3cc1b92626ea1caa292d3969a9d3ab,PennController,40,0,demo,NULL,Html,bg_form,rightwrong,no,1771505604607,radio button
1771505605,0a3cc1b92626ea1caa292d3969a9d3ab,PennController,40,0,demo,NULL,Html,bg_form,gender,man,1771505604607,radio button
1771505605,0a3cc1b92626ea1caa292d3969a9d3ab,PennController,40,0,demo,NULL,PennController,3,_Trial_,End,1771505604610,NULL
#
# Results on Thu, 19 Feb 2026 12:54:41 GMT
# USER AGENT: Mozilla/5.0 (iPhone; CPU iPhone OS 18_7 like Mac OS X) AppleWebKit/605.1.15 (KHTML, like Gecko) Version/26.3 Mobile/15E148 Safari/604.1
# Design number was non-random = 0
#
# Columns below this comment are as follows:
# 1. Results reception time.
# 2. MD5 hash of participant's IP address.
# 3. Controller name.
# 4. Order number of item.
# 5. Inner element number.
# 6. Label.
# 7. Latin Square Group.
# 8. PennElementType.
# 9. PennElementName.
# 10. Parameter.
# 11. Value.
# 12. EventTime.
# 13. Comments.
1771505681,b627c015550b94dbd6e9280cc2b10cd5,PennController,0,0,welcome,NULL,PennController,0,_Header_,Start,1771505038517,NULL
1771505681,b627c015550b94dbd6e9280cc2b10cd5,PennController,0,0,welcome,NULL,PennController,0,_Trial_,Start,1771505038517,NULL
1771505681,b627c015550b94dbd6e9280cc2b10cd5,PennController,0,0,welcome,NULL,PennController,0,_Header_,End,1771505038774,NULL
1771505681,b627c015550b94dbd6e9280cc2b10cd5,PennController,0,0,welcome,NULL,PennController,0,_Trial_,End,1771505043399,NULL
1771505681,b627c015550b94dbd6e9280cc2b10cd5,PennController,39,0,consent,NULL,PennController,2,_Header_,Start,1771505043403,NULL
1771505681,b627c015550b94dbd6e9280cc2b10cd5,PennController,39,0,consent,NULL,PennController,2,_Trial_,Start,1771505043403,NULL
1771505681,b627c015550b94dbd6e9280cc2b10cd5,PennController,39,0,consent,NULL,PennController,2,_Header_,End,1771505043656,NULL
1771505681,b627c015550b94dbd6e9280cc2b10cd5,PennController,39,0,consent,NULL,PennController,2,_Trial_,End,1771505069120,NULL
1771505681,b627c015550b94dbd6e9280cc2b10cd5,PennController,41,0,instructions1,NULL,PennController,4,_Header_,Start,1771505069122,NULL
1771505681,b627c015550b94dbd6e9280cc2b10cd5,PennController,41,0,instructions1,NULL,PennController,4,_Trial_,Start,1771505069122,NULL
1771505681,b627c015550b94dbd6e9280cc2b10cd5,PennController,41,0,instructions1,NULL,PennController,4,_Header_,End,1771505069374,NULL
1771505681,b627c015550b94dbd6e9280cc2b10cd5,PennController,41,0,instructions1,NULL,PennController,4,_Trial_,End,1771505075778,NULL
# 13. TrialType.
# 14. Number.
# 15. Valence.
# 16. Group.
# 17. Comments.
1771505681,b627c015550b94dbd6e9280cc2b10cd5,PennController,4,0,practice,NULL,PennController,7,_Header_,Start,1771505075781,Practice,2,none,none,NULL
1771505681,b627c015550b94dbd6e9280cc2b10cd5,PennController,4,0,practice,NULL,PennController,7,_Trial_,Start,1771505075781,Practice,2,none,none,NULL
1771505681,b627c015550b94dbd6e9280cc2b10cd5,PennController,4,0,practice,NULL,PennController,7,_Header_,End,1771505076033,Practice,2,none,none,NULL
1771505681,b627c015550b94dbd6e9280cc2b10cd5,PennController,4,0,practice,NULL,Scale,R1B,Choice,Somewhat bad,1771505089641,Practice,2,none,none,NULL
1771505681,b627c015550b94dbd6e9280cc2b10cd5,PennController,4,0,practice,NULL,Scale,R2,Choice,Maybe there is a correct answer,1771505098873,Practice,2,none,none,NULL
1771505681,b627c015550b94dbd6e9280cc2b10cd5,PennController,4,0,practice,NULL,Scale,R3,Choice,Most of them would agree with me,1771505103133,Practice,2,none,none,NULL
1771505681,b627c015550b94dbd6e9280cc2b10cd5,PennController,4,0,practice,NULL,Scale,R4,Choice,A little easy,1771505106454,Practice,2,none,none,NULL
1771505681,b627c015550b94dbd6e9280cc2b10cd5,PennController,4,0,practice,NULL,PennController,7,_Trial_,End,1771505107733,Practice,2,none,none,NULL
1771505681,b627c015550b94dbd6e9280cc2b10cd5,PennController,3,0,practice,NULL,PennController,6,_Header_,Start,1771505107738,Practice,1,none,none,NULL
1771505681,b627c015550b94dbd6e9280cc2b10cd5,PennController,3,0,practice,NULL,PennController,6,_Trial_,Start,1771505107738,Practice,1,none,none,NULL
1771505681,b627c015550b94dbd6e9280cc2b10cd5,PennController,3,0,practice,NULL,PennController,6,_Header_,End,1771505107989,Practice,1,none,none,NULL
1771505681,b627c015550b94dbd6e9280cc2b10cd5,PennController,3,0,practice,NULL,Scale,R1B,Choice,Very Good,1771505118781,Practice,1,none,none,NULL
1771505681,b627c015550b94dbd6e9280cc2b10cd5,PennController,3,0,practice,NULL,Scale,R2,Choice,Definitely no correct answer,1771505130547,Practice,1,none,none,NULL
1771505681,b627c015550b94dbd6e9280cc2b10cd5,PennController,3,0,practice,NULL,Scale,R3,Choice,Most of them would disagree with me,1771505139267,Practice,1,none,none,NULL
1771505681,b627c015550b94dbd6e9280cc2b10cd5,PennController,3,0,practice,NULL,Scale,R4,Choice,A little difficult,1771505145727,Practice,1,none,none,NULL
1771505681,b627c015550b94dbd6e9280cc2b10cd5,PennController,3,0,practice,NULL,PennController,6,_Trial_,End,1771505146724,Practice,1,none,none,NULL
# 13. Phase.
# 14. TrialType.
# 15. Number.
# 16. Valence.
# 17. Group.
# 18. Comments.
1771505681,b627c015550b94dbd6e9280cc2b10cd5,PennController,11,0,test_phase1,NULL,PennController,14,_Header_,Start,1771505146728,1,test,4,Neg,A,NULL
1771505681,b627c015550b94dbd6e9280cc2b10cd5,PennController,11,0,test_phase1,NULL,PennController,14,_Trial_,Start,1771505146728,1,test,4,Neg,A,NULL
1771505681,b627c015550b94dbd6e9280cc2b10cd5,PennController,11,0,test_phase1,NULL,PennController,14,_Header_,End,1771505146980,1,test,4,Neg,A,NULL
1771505681,b627c015550b94dbd6e9280cc2b10cd5,PennController,11,0,test_phase1,NULL,Scale,R1B,Choice,Somewhat wrong,1771505193173,1,test,4,Neg,A,NULL
1771505681,b627c015550b94dbd6e9280cc2b10cd5,PennController,11,0,test_phase1,NULL,Scale,R2,Choice,Maybe no correct answer,1771505195739,1,test,4,Neg,A,NULL
1771505681,b627c015550b94dbd6e9280cc2b10cd5,PennController,11,0,test_phase1,NULL,Scale,R3,Choice,Some of them would agree with me,1771505198616,1,test,4,Neg,A,NULL
1771505681,b627c015550b94dbd6e9280cc2b10cd5,PennController,11,0,test_phase1,NULL,Scale,R4,Choice,Somewhat easy,1771505203941,1,test,4,Neg,A,NULL
1771505681,b627c015550b94dbd6e9280cc2b10cd5,PennController,11,0,test_phase1,NULL,PennController,14,_Trial_,End,1771505206456,1,test,4,Neg,A,NULL
1771505681,b627c015550b94dbd6e9280cc2b10cd5,PennController,13,0,test_phase1,NULL,PennController,16,_Header_,Start,1771505206461,1,test,8,Neg,A,NULL
1771505681,b627c015550b94dbd6e9280cc2b10cd5,PennController,13,0,test_phase1,NULL,PennController,16,_Trial_,Start,1771505206461,1,test,8,Neg,A,NULL
1771505681,b627c015550b94dbd6e9280cc2b10cd5,PennController,13,0,test_phase1,NULL,PennController,16,_Header_,End,1771505206713,1,test,8,Neg,A,NULL
1771505681,b627c015550b94dbd6e9280cc2b10cd5,PennController,13,0,test_phase1,NULL,Scale,R1B,Choice,Good,1771505224577,1,test,8,Neg,A,NULL
1771505681,b627c015550b94dbd6e9280cc2b10cd5,PennController,13,0,test_phase1,NULL,Scale,R2,Choice,Maybe there is a correct answer,1771505226347,1,test,8,Neg,A,NULL
1771505681,b627c015550b94dbd6e9280cc2b10cd5,PennController,13,0,test_phase1,NULL,Scale,R3,Choice,Some of them would agree with me,1771505228324,1,test,8,Neg,A,NULL
1771505681,b627c015550b94dbd6e9280cc2b10cd5,PennController,13,0,test_phase1,NULL,Scale,R4,Choice,A little difficult,1771505231647,1,test,8,Neg,A,NULL
1771505681,b627c015550b94dbd6e9280cc2b10cd5,PennController,13,0,test_phase1,NULL,PennController,16,_Trial_,End,1771505233585,1,test,8,Neg,A,NULL
1771505681,b627c015550b94dbd6e9280cc2b10cd5,PennController,10,0,test_phase1,NULL,PennController,13,_Header_,Start,1771505233587,1,test,2,Neg,A,NULL
1771505681,b627c015550b94dbd6e9280cc2b10cd5,PennController,10,0,test_phase1,NULL,PennController,13,_Trial_,Start,1771505233587,1,test,2,Neg,A,NULL
1771505681,b627c015550b94dbd6e9280cc2b10cd5,PennController,10,0,test_phase1,NULL,PennController,13,_Header_,End,1771505233840,1,test,2,Neg,A,NULL
1771505681,b627c015550b94dbd6e9280cc2b10cd5,PennController,10,0,test_phase1,NULL,Scale,R1B,Choice,Somewhat bad,1771505237268,1,test,2,Neg,A,NULL
1771505681,b627c015550b94dbd6e9280cc2b10cd5,PennController,10,0,test_phase1,NULL,Scale,R2,Choice,Probably there is a correct answer,1771505244265,1,test,2,Neg,A,NULL
1771505681,b627c015550b94dbd6e9280cc2b10cd5,PennController,10,0,test_phase1,NULL,Scale,R3,Choice,Some of them would agree with me,1771505247855,1,test,2,Neg,A,NULL
1771505681,b627c015550b94dbd6e9280cc2b10cd5,PennController,10,0,test_phase1,NULL,Scale,R4,Choice,A little easy,1771505251668,1,test,2,Neg,A,NULL
1771505681,b627c015550b94dbd6e9280cc2b10cd5,PennController,10,0,test_phase1,NULL,PennController,13,_Trial_,End,1771505254944,1,test,2,Neg,A,NULL
1771505681,b627c015550b94dbd6e9280cc2b10cd5,PennController,12,0,test_phase1,NULL,PennController,15,_Header_,Start,1771505254948,1,test,6,Neg,A,NULL
1771505681,b627c015550b94dbd6e9280cc2b10cd5,PennController,12,0,test_phase1,NULL,PennController,15,_Trial_,Start,1771505254948,1,test,6,Neg,A,NULL
1771505681,b627c015550b94dbd6e9280cc2b10cd5,PennController,12,0,test_phase1,NULL,PennController,15,_Header_,End,1771505255201,1,test,6,Neg,A,NULL
1771505681,b627c015550b94dbd6e9280cc2b10cd5,PennController,12,0,test_phase1,NULL,Scale,R1B,Choice,Bad,1771505264599,1,test,6,Neg,A,NULL
1771505681,b627c015550b94dbd6e9280cc2b10cd5,PennController,12,0,test_phase1,NULL,Scale,R2,Choice,Probably no correct answer,1771505266420,1,test,6,Neg,A,NULL
1771505681,b627c015550b94dbd6e9280cc2b10cd5,PennController,12,0,test_phase1,NULL,Scale,R3,Choice,Some of them would agree with me,1771505268039,1,test,6,Neg,A,NULL
1771505681,b627c015550b94dbd6e9280cc2b10cd5,PennController,12,0,test_phase1,NULL,Scale,R4,Choice,Somewhat difficult,1771505272282,1,test,6,Neg,A,NULL
1771505681,b627c015550b94dbd6e9280cc2b10cd5,PennController,12,0,test_phase1,NULL,PennController,15,_Trial_,End,1771505273254,1,test,6,Neg,A,NULL
1771505681,b627c015550b94dbd6e9280cc2b10cd5,PennController,9,0,test_phase1,NULL,PennController,12,_Header_,Start,1771505273256,1,test,9,Pos,A,NULL
1771505681,b627c015550b94dbd6e9280cc2b10cd5,PennController,9,0,test_phase1,NULL,PennController,12,_Trial_,Start,1771505273256,1,test,9,Pos,A,NULL
1771505681,b627c015550b94dbd6e9280cc2b10cd5,PennController,9,0,test_phase1,NULL,PennController,12,_Header_,End,1771505273507,1,test,9,Pos,A,NULL
1771505681,b627c015550b94dbd6e9280cc2b10cd5,PennController,9,0,test_phase1,NULL,Scale,R1B,Choice,Somewhat bad,1771505286913,1,test,9,Pos,A,NULL
1771505681,b627c015550b94dbd6e9280cc2b10cd5,PennController,9,0,test_phase1,NULL,Scale,R2,Choice,Maybe there is a correct answer,1771505288466,1,test,9,Pos,A,NULL
1771505681,b627c015550b94dbd6e9280cc2b10cd5,PennController,9,0,test_phase1,NULL,Scale,R3,Choice,Some of them would disagree with me,1771505289966,1,test,9,Pos,A,NULL
1771505681,b627c015550b94dbd6e9280cc2b10cd5,PennController,9,0,test_phase1,NULL,Scale,R4,Choice,A little difficult,1771505292639,1,test,9,Pos,A,NULL
1771505681,b627c015550b94dbd6e9280cc2b10cd5,PennController,9,0,test_phase1,NULL,PennController,12,_Trial_,End,1771505294529,1,test,9,Pos,A,NULL
1771505681,b627c015550b94dbd6e9280cc2b10cd5,PennController,5,0,test_phase1,NULL,PennController,8,_Header_,Start,1771505294531,1,test,1,Pos,A,NULL
1771505681,b627c015550b94dbd6e9280cc2b10cd5,PennController,5,0,test_phase1,NULL,PennController,8,_Trial_,Start,1771505294531,1,test,1,Pos,A,NULL
1771505681,b627c015550b94dbd6e9280cc2b10cd5,PennController,5,0,test_phase1,NULL,PennController,8,_Header_,End,1771505294785,1,test,1,Pos,A,NULL
1771505681,b627c015550b94dbd6e9280cc2b10cd5,PennController,5,0,test_phase1,NULL,Scale,R1B,Choice,Bad,1771505304328,1,test,1,Pos,A,NULL
1771505681,b627c015550b94dbd6e9280cc2b10cd5,PennController,5,0,test_phase1,NULL,Scale,R2,Choice,Definitely there is a correct answer,1771505308187,1,test,1,Pos,A,NULL
1771505681,b627c015550b94dbd6e9280cc2b10cd5,PennController,5,0,test_phase1,NULL,Scale,R3,Choice,Almost everyone would agree with me,1771505312408,1,test,1,Pos,A,NULL
1771505681,b627c015550b94dbd6e9280cc2b10cd5,PennController,5,0,test_phase1,NULL,Scale,R4,Choice,Very easy,1771505317151,1,test,1,Pos,A,NULL
1771505681,b627c015550b94dbd6e9280cc2b10cd5,PennController,5,0,test_phase1,NULL,PennController,8,_Trial_,End,1771505318845,1,test,1,Pos,A,NULL
1771505681,b627c015550b94dbd6e9280cc2b10cd5,PennController,7,0,test_phase1,NULL,PennController,10,_Header_,Start,1771505318848,1,test,5,Pos,A,NULL
1771505681,b627c015550b94dbd6e9280cc2b10cd5,PennController,7,0,test_phase1,NULL,PennController,10,_Trial_,Start,1771505318848,1,test,5,Pos,A,NULL
1771505681,b627c015550b94dbd6e9280cc2b10cd5,PennController,7,0,test_phase1,NULL,PennController,10,_Header_,End,1771505319099,1,test,5,Pos,A,NULL
1771505681,b627c015550b94dbd6e9280cc2b10cd5,PennController,7,0,test_phase1,NULL,Scale,R1B,Choice,Somewhat bad,1771505322193,1,test,5,Pos,A,NULL
1771505681,b627c015550b94dbd6e9280cc2b10cd5,PennController,7,0,test_phase1,NULL,Scale,R2,Choice,Maybe there is a correct answer,1771505322917,1,test,5,Pos,A,NULL
1771505681,b627c015550b94dbd6e9280cc2b10cd5,PennController,7,0,test_phase1,NULL,Scale,R3,Choice,Some of them would agree with me,1771505324433,1,test,5,Pos,A,NULL
1771505681,b627c015550b94dbd6e9280cc2b10cd5,PennController,7,0,test_phase1,NULL,Scale,R4,Choice,Somewhat easy,1771505326771,1,test,5,Pos,A,NULL
1771505681,b627c015550b94dbd6e9280cc2b10cd5,PennController,7,0,test_phase1,NULL,PennController,10,_Trial_,End,1771505330069,1,test,5,Pos,A,NULL
1771505681,b627c015550b94dbd6e9280cc2b10cd5,PennController,8,0,test_phase1,NULL,PennController,11,_Header_,Start,1771505330071,1,test,7,Pos,A,NULL
1771505681,b627c015550b94dbd6e9280cc2b10cd5,PennController,8,0,test_phase1,NULL,PennController,11,_Trial_,Start,1771505330071,1,test,7,Pos,A,NULL
1771505681,b627c015550b94dbd6e9280cc2b10cd5,PennController,8,0,test_phase1,NULL,PennController,11,_Header_,End,1771505330323,1,test,7,Pos,A,NULL
1771505681,b627c015550b94dbd6e9280cc2b10cd5,PennController,8,0,test_phase1,NULL,Scale,R1B,Choice,Somewhat wrong,1771505331697,1,test,7,Pos,A,NULL
1771505681,b627c015550b94dbd6e9280cc2b10cd5,PennController,8,0,test_phase1,NULL,Scale,R2,Choice,Maybe no correct answer,1771505332753,1,test,7,Pos,A,NULL
1771505681,b627c015550b94dbd6e9280cc2b10cd5,PennController,8,0,test_phase1,NULL,Scale,R3,Choice,Some of them would agree with me,1771505339145,1,test,7,Pos,A,NULL
1771505681,b627c015550b94dbd6e9280cc2b10cd5,PennController,8,0,test_phase1,NULL,Scale,R4,Choice,A little easy,1771505342335,1,test,7,Pos,A,NULL
1771505681,b627c015550b94dbd6e9280cc2b10cd5,PennController,8,0,test_phase1,NULL,PennController,11,_Trial_,End,1771505344373,1,test,7,Pos,A,NULL
1771505681,b627c015550b94dbd6e9280cc2b10cd5,PennController,6,0,test_phase1,NULL,PennController,9,_Header_,Start,1771505344374,1,test,3,Pos,A,NULL
1771505681,b627c015550b94dbd6e9280cc2b10cd5,PennController,6,0,test_phase1,NULL,PennController,9,_Trial_,Start,1771505344374,1,test,3,Pos,A,NULL
1771505681,b627c015550b94dbd6e9280cc2b10cd5,PennController,6,0,test_phase1,NULL,PennController,9,_Header_,End,1771505344629,1,test,3,Pos,A,NULL
1771505681,b627c015550b94dbd6e9280cc2b10cd5,PennController,6,0,test_phase1,NULL,Scale,R1B,Choice,Somewhat bad,1771505346125,1,test,3,Pos,A,NULL
1771505681,b627c015550b94dbd6e9280cc2b10cd5,PennController,6,0,test_phase1,NULL,Scale,R2,Choice,Maybe there is a correct answer,1771505347043,1,test,3,Pos,A,NULL
1771505681,b627c015550b94dbd6e9280cc2b10cd5,PennController,6,0,test_phase1,NULL,Scale,R3,Choice,Some of them would agree with me,1771505348400,1,test,3,Pos,A,NULL
1771505681,b627c015550b94dbd6e9280cc2b10cd5,PennController,6,0,test_phase1,NULL,Scale,R4,Choice,A little easy,1771505352287,1,test,3,Pos,A,NULL
1771505681,b627c015550b94dbd6e9280cc2b10cd5,PennController,6,0,test_phase1,NULL,PennController,9,_Trial_,End,1771505354213,1,test,3,Pos,A,NULL
1771505681,b627c015550b94dbd6e9280cc2b10cd5,PennController,14,0,test_phase1,NULL,PennController,17,_Header_,Start,1771505354215,1,test,10,Neg,A,NULL
1771505681,b627c015550b94dbd6e9280cc2b10cd5,PennController,14,0,test_phase1,NULL,PennController,17,_Trial_,Start,1771505354215,1,test,10,Neg,A,NULL
1771505681,b627c015550b94dbd6e9280cc2b10cd5,PennController,14,0,test_phase1,NULL,PennController,17,_Header_,End,1771505354468,1,test,10,Neg,A,NULL
1771505681,b627c015550b94dbd6e9280cc2b10cd5,PennController,14,0,test_phase1,NULL,Scale,R1B,Choice,Somewhat bad,1771505356078,1,test,10,Neg,A,NULL
1771505681,b627c015550b94dbd6e9280cc2b10cd5,PennController,14,0,test_phase1,NULL,Scale,R2,Choice,Maybe no correct answer,1771505357013,1,test,10,Neg,A,NULL
1771505681,b627c015550b94dbd6e9280cc2b10cd5,PennController,14,0,test_phase1,NULL,Scale,R3,Choice,Some of them would agree with me,1771505358599,1,test,10,Neg,A,NULL
1771505681,b627c015550b94dbd6e9280cc2b10cd5,PennController,14,0,test_phase1,NULL,Scale,R4,Choice,A little difficult,1771505361795,1,test,10,Neg,A,NULL
1771505681,b627c015550b94dbd6e9280cc2b10cd5,PennController,14,0,test_phase1,NULL,PennController,17,_Trial_,End,1771505362847,1,test,10,Neg,A,NULL
1771505681,b627c015550b94dbd6e9280cc2b10cd5,PennController,23,0,fillers,NULL,PennController,26,_Header_,Start,1771505362849,1,filler,9,none,none,NULL
1771505681,b627c015550b94dbd6e9280cc2b10cd5,PennController,23,0,fillers,NULL,PennController,26,_Trial_,Start,1771505362849,1,filler,9,none,none,NULL
1771505681,b627c015550b94dbd6e9280cc2b10cd5,PennController,23,0,fillers,NULL,PennController,26,_Header_,End,1771505363101,1,filler,9,none,none,NULL
1771505681,b627c015550b94dbd6e9280cc2b10cd5,PennController,23,0,fillers,NULL,Scale,R1B,Choice,Good,1771505374631,1,filler,9,none,none,NULL
1771505681,b627c015550b94dbd6e9280cc2b10cd5,PennController,23,0,fillers,NULL,Scale,R2,Choice,Maybe there is a correct answer,1771505378223,1,filler,9,none,none,NULL
1771505681,b627c015550b94dbd6e9280cc2b10cd5,PennController,23,0,fillers,NULL,Scale,R3,Choice,Some of them would disagree with me,1771505381543,1,filler,9,none,none,NULL
1771505681,b627c015550b94dbd6e9280cc2b10cd5,PennController,23,0,fillers,NULL,Scale,R4,Choice,Somewhat easy,1771505383315,1,filler,9,none,none,NULL
1771505681,b627c015550b94dbd6e9280cc2b10cd5,PennController,23,0,fillers,NULL,PennController,26,_Trial_,End,1771505384149,1,filler,9,none,none,NULL
1771505681,b627c015550b94dbd6e9280cc2b10cd5,PennController,20,0,fillers,NULL,PennController,23,_Header_,Start,1771505384151,1,filler,6,none,none,NULL
1771505681,b627c015550b94dbd6e9280cc2b10cd5,PennController,20,0,fillers,NULL,PennController,23,_Trial_,Start,1771505384151,1,filler,6,none,none,NULL
1771505681,b627c015550b94dbd6e9280cc2b10cd5,PennController,20,0,fillers,NULL,PennController,23,_Header_,End,1771505384403,1,filler,6,none,none,NULL
1771505681,b627c015550b94dbd6e9280cc2b10cd5,PennController,20,0,fillers,NULL,Scale,R2,Choice,Probably no correct answer,1771505386600,1,filler,6,none,none,NULL
1771505681,b627c015550b94dbd6e9280cc2b10cd5,PennController,20,0,fillers,NULL,Scale,R1B,Choice,Somewhat bad,1771505388776,1,filler,6,none,none,NULL
1771505681,b627c015550b94dbd6e9280cc2b10cd5,PennController,20,0,fillers,NULL,Scale,R3,Choice,Almost everyone would agree with me,1771505389743,1,filler,6,none,none,NULL
1771505681,b627c015550b94dbd6e9280cc2b10cd5,PennController,20,0,fillers,NULL,Scale,R4,Choice,Very easy,1771505392632,1,filler,6,none,none,NULL
1771505681,b627c015550b94dbd6e9280cc2b10cd5,PennController,20,0,fillers,NULL,PennController,23,_Trial_,End,1771505398298,1,filler,6,none,none,NULL
1771505681,b627c015550b94dbd6e9280cc2b10cd5,PennController,22,0,fillers,NULL,PennController,25,_Header_,Start,1771505398300,1,filler,8,none,none,NULL
1771505681,b627c015550b94dbd6e9280cc2b10cd5,PennController,22,0,fillers,NULL,PennController,25,_Trial_,Start,1771505398300,1,filler,8,none,none,NULL
1771505681,b627c015550b94dbd6e9280cc2b10cd5,PennController,22,0,fillers,NULL,PennController,25,_Header_,End,1771505398554,1,filler,8,none,none,NULL
1771505681,b627c015550b94dbd6e9280cc2b10cd5,PennController,22,0,fillers,NULL,Scale,R1B,Choice,Somewhat bad,1771505399895,1,filler,8,none,none,NULL
1771505681,b627c015550b94dbd6e9280cc2b10cd5,PennController,22,0,fillers,NULL,Scale,R2,Choice,Probably there is a correct answer,1771505400633,1,filler,8,none,none,NULL
1771505681,b627c015550b94dbd6e9280cc2b10cd5,PennController,22,0,fillers,NULL,Scale,R3,Choice,Some of them would agree with me,1771505402416,1,filler,8,none,none,NULL
1771505681,b627c015550b94dbd6e9280cc2b10cd5,PennController,22,0,fillers,NULL,Scale,R4,Choice,Somewhat easy,1771505404671,1,filler,8,none,none,NULL
1771505681,b627c015550b94dbd6e9280cc2b10cd5,PennController,22,0,fillers,NULL,PennController,25,_Trial_,End,1771505406618,1,filler,8,none,none,NULL
1771505681,b627c015550b94dbd6e9280cc2b10cd5,PennController,24,0,fillers,NULL,PennController,27,_Header_,Start,1771505406620,1,filler,10,none,none,NULL
1771505681,b627c015550b94dbd6e9280cc2b10cd5,PennController,24,0,fillers,NULL,PennController,27,_Trial_,Start,1771505406620,1,filler,10,none,none,NULL
1771505681,b627c015550b94dbd6e9280cc2b10cd5,PennController,24,0,fillers,NULL,PennController,27,_Header_,End,1771505406871,1,filler,10,none,none,NULL
1771505681,b627c015550b94dbd6e9280cc2b10cd5,PennController,24,0,fillers,NULL,Scale,R1B,Choice,Somewhat bad,1771505409498,1,filler,10,none,none,NULL
1771505681,b627c015550b94dbd6e9280cc2b10cd5,PennController,24,0,fillers,NULL,Scale,R2,Choice,Maybe no correct answer,1771505410154,1,filler,10,none,none,NULL
1771505681,b627c015550b94dbd6e9280cc2b10cd5,PennController,24,0,fillers,NULL,Scale,R3,Choice,Some of them would disagree with me,1771505411620,1,filler,10,none,none,NULL
1771505681,b627c015550b94dbd6e9280cc2b10cd5,PennController,24,0,fillers,NULL,Scale,R4,Choice,A little easy,1771505415730,1,filler,10,none,none,NULL
1771505681,b627c015550b94dbd6e9280cc2b10cd5,PennController,24,0,fillers,NULL,PennController,27,_Trial_,End,1771505417453,1,filler,10,none,none,NULL
1771505681,b627c015550b94dbd6e9280cc2b10cd5,PennController,19,0,fillers,NULL,PennController,22,_Header_,Start,1771505417454,1,filler,5,none,none,NULL
1771505681,b627c015550b94dbd6e9280cc2b10cd5,PennController,19,0,fillers,NULL,PennController,22,_Trial_,Start,1771505417454,1,filler,5,none,none,NULL
1771505681,b627c015550b94dbd6e9280cc2b10cd5,PennController,19,0,fillers,NULL,PennController,22,_Header_,End,1771505417706,1,filler,5,none,none,NULL
1771505681,b627c015550b94dbd6e9280cc2b10cd5,PennController,19,0,fillers,NULL,Scale,R1B,Choice,Somewhat bad,1771505419324,1,filler,5,none,none,NULL
1771505681,b627c015550b94dbd6e9280cc2b10cd5,PennController,19,0,fillers,NULL,Scale,R2,Choice,Maybe there is a correct answer,1771505419887,1,filler,5,none,none,NULL
1771505681,b627c015550b94dbd6e9280cc2b10cd5,PennController,19,0,fillers,NULL,Scale,R3,Choice,Some of them would agree with me,1771505420638,1,filler,5,none,none,NULL
1771505681,b627c015550b94dbd6e9280cc2b10cd5,PennController,19,0,fillers,NULL,Scale,R4,Choice,A little easy,1771505421874,1,filler,5,none,none,NULL
1771505681,b627c015550b94dbd6e9280cc2b10cd5,PennController,19,0,fillers,NULL,PennController,22,_Trial_,End,1771505422884,1,filler,5,none,none,NULL
1771505681,b627c015550b94dbd6e9280cc2b10cd5,PennController,16,0,fillers,NULL,PennController,19,_Header_,Start,1771505422886,1,filler,2,none,none,NULL
1771505681,b627c015550b94dbd6e9280cc2b10cd5,PennController,16,0,fillers,NULL,PennController,19,_Trial_,Start,1771505422886,1,filler,2,none,none,NULL
1771505681,b627c015550b94dbd6e9280cc2b10cd5,PennController,16,0,fillers,NULL,PennController,19,_Header_,End,1771505423139,1,filler,2,none,none,NULL
1771505681,b627c015550b94dbd6e9280cc2b10cd5,PennController,16,0,fillers,NULL,Scale,R1B,Choice,Somewhat bad,1771505424479,1,filler,2,none,none,NULL
1771505681,b627c015550b94dbd6e9280cc2b10cd5,PennController,16,0,fillers,NULL,Scale,R2,Choice,Maybe there is a correct answer,1771505424964,1,filler,2,none,none,NULL
1771505681,b627c015550b94dbd6e9280cc2b10cd5,PennController,16,0,fillers,NULL,Scale,R3,Choice,Some of them would agree with me,1771505425753,1,filler,2,none,none,NULL
1771505681,b627c015550b94dbd6e9280cc2b10cd5,PennController,16,0,fillers,NULL,Scale,R4,Choice,A little difficult,1771505428322,1,filler,2,none,none,NULL
1771505681,b627c015550b94dbd6e9280cc2b10cd5,PennController,16,0,fillers,NULL,PennController,19,_Trial_,End,1771505429114,1,filler,2,none,none,NULL
1771505681,b627c015550b94dbd6e9280cc2b10cd5,PennController,27,0,fillers,NULL,PennController,30,_Header_,Start,1771505429116,1,filler,13,none,none,NULL
1771505681,b627c015550b94dbd6e9280cc2b10cd5,PennController,27,0,fillers,NULL,PennController,30,_Trial_,Start,1771505429116,1,filler,13,none,none,NULL
1771505681,b627c015550b94dbd6e9280cc2b10cd5,PennController,27,0,fillers,NULL,PennController,30,_Header_,End,1771505429369,1,filler,13,none,none,NULL
1771505681,b627c015550b94dbd6e9280cc2b10cd5,PennController,27,0,fillers,NULL,Scale,R1B,Choice,Somewhat bad,1771505430924,1,filler,13,none,none,NULL
1771505681,b627c015550b94dbd6e9280cc2b10cd5,PennController,27,0,fillers,NULL,Scale,R2,Choice,Maybe there is a correct answer,1771505431631,1,filler,13,none,none,NULL
1771505681,b627c015550b94dbd6e9280cc2b10cd5,PennController,27,0,fillers,NULL,Scale,R3,Choice,Some of them would agree with me,1771505432361,1,filler,13,none,none,NULL
1771505681,b627c015550b94dbd6e9280cc2b10cd5,PennController,27,0,fillers,NULL,Scale,R4,Choice,A little easy,1771505435869,1,filler,13,none,none,NULL
1771505681,b627c015550b94dbd6e9280cc2b10cd5,PennController,27,0,fillers,NULL,PennController,30,_Trial_,End,1771505437559,1,filler,13,none,none,NULL
1771505681,b627c015550b94dbd6e9280cc2b10cd5,PennController,18,0,fillers,NULL,PennController,21,_Header_,Start,1771505437561,1,filler,4,none,none,NULL
1771505681,b627c015550b94dbd6e9280cc2b10cd5,PennController,18,0,fillers,NULL,PennController,21,_Trial_,Start,1771505437561,1,filler,4,none,none,NULL
1771505681,b627c015550b94dbd6e9280cc2b10cd5,PennController,18,0,fillers,NULL,PennController,21,_Header_,End,1771505437812,1,filler,4,none,none,NULL
1771505681,b627c015550b94dbd6e9280cc2b10cd5,PennController,18,0,fillers,NULL,Scale,R1B,Choice,Somewhat bad,1771505439212,1,filler,4,none,none,NULL
1771505681,b627c015550b94dbd6e9280cc2b10cd5,PennController,18,0,fillers,NULL,Scale,R2,Choice,Maybe there is a correct answer,1771505439709,1,filler,4,none,none,NULL
1771505681,b627c015550b94dbd6e9280cc2b10cd5,PennController,18,0,fillers,NULL,Scale,R3,Choice,Some of them would disagree with me,1771505440482,1,filler,4,none,none,NULL
1771505681,b627c015550b94dbd6e9280cc2b10cd5,PennController,18,0,fillers,NULL,Scale,R4,Choice,A little easy,1771505443554,1,filler,4,none,none,NULL
1771505681,b627c015550b94dbd6e9280cc2b10cd5,PennController,18,0,fillers,NULL,PennController,21,_Trial_,End,1771505445143,1,filler,4,none,none,NULL
1771505681,b627c015550b94dbd6e9280cc2b10cd5,PennController,17,0,fillers,NULL,PennController,20,_Header_,Start,1771505445146,1,filler,3,none,none,NULL
1771505681,b627c015550b94dbd6e9280cc2b10cd5,PennController,17,0,fillers,NULL,PennController,20,_Trial_,Start,1771505445146,1,filler,3,none,none,NULL
1771505681,b627c015550b94dbd6e9280cc2b10cd5,PennController,17,0,fillers,NULL,PennController,20,_Header_,End,1771505445398,1,filler,3,none,none,NULL
1771505681,b627c015550b94dbd6e9280cc2b10cd5,PennController,17,0,fillers,NULL,Scale,R1B,Choice,Somewhat bad,1771505446779,1,filler,3,none,none,NULL
1771505681,b627c015550b94dbd6e9280cc2b10cd5,PennController,17,0,fillers,NULL,Scale,R2,Choice,Maybe there is a correct answer,1771505447274,1,filler,3,none,none,NULL
1771505681,b627c015550b94dbd6e9280cc2b10cd5,PennController,17,0,fillers,NULL,Scale,R3,Choice,Some of them would agree with me,1771505450480,1,filler,3,none,none,NULL
1771505681,b627c015550b94dbd6e9280cc2b10cd5,PennController,17,0,fillers,NULL,Scale,R4,Choice,A little easy,1771505454959,1,filler,3,none,none,NULL
1771505681,b627c015550b94dbd6e9280cc2b10cd5,PennController,17,0,fillers,NULL,PennController,20,_Trial_,End,1771505456714,1,filler,3,none,none,NULL
1771505681,b627c015550b94dbd6e9280cc2b10cd5,PennController,25,0,fillers,NULL,PennController,28,_Header_,Start,1771505456716,1,filler,11,none,none,NULL
1771505681,b627c015550b94dbd6e9280cc2b10cd5,PennController,25,0,fillers,NULL,PennController,28,_Trial_,Start,1771505456716,1,filler,11,none,none,NULL
1771505681,b627c015550b94dbd6e9280cc2b10cd5,PennController,25,0,fillers,NULL,PennController,28,_Header_,End,1771505456969,1,filler,11,none,none,NULL
1771505681,b627c015550b94dbd6e9280cc2b10cd5,PennController,25,0,fillers,NULL,Scale,R1B,Choice,Somewhat bad,1771505458365,1,filler,11,none,none,NULL
1771505681,b627c015550b94dbd6e9280cc2b10cd5,PennController,25,0,fillers,NULL,Scale,R2,Choice,Maybe there is a correct answer,1771505458928,1,filler,11,none,none,NULL
1771505681,b627c015550b94dbd6e9280cc2b10cd5,PennController,25,0,fillers,NULL,Scale,R3,Choice,Some of them would agree with me,1771505460148,1,filler,11,none,none,NULL
1771505681,b627c015550b94dbd6e9280cc2b10cd5,PennController,25,0,fillers,NULL,Scale,R4,Choice,A little easy,1771505462135,1,filler,11,none,none,NULL
1771505681,b627c015550b94dbd6e9280cc2b10cd5,PennController,25,0,fillers,NULL,PennController,28,_Trial_,End,1771505464572,1,filler,11,none,none,NULL
1771505681,b627c015550b94dbd6e9280cc2b10cd5,PennController,15,0,fillers,NULL,PennController,18,_Header_,Start,1771505464574,1,filler,1,none,none,NULL
1771505681,b627c015550b94dbd6e9280cc2b10cd5,PennController,15,0,fillers,NULL,PennController,18,_Trial_,Start,1771505464574,1,filler,1,none,none,NULL
1771505681,b627c015550b94dbd6e9280cc2b10cd5,PennController,15,0,fillers,NULL,PennController,18,_Header_,End,1771505464826,1,filler,1,none,none,NULL
1771505681,b627c015550b94dbd6e9280cc2b10cd5,PennController,15,0,fillers,NULL,Scale,R1B,Choice,Somewhat bad,1771505466177,1,filler,1,none,none,NULL
1771505681,b627c015550b94dbd6e9280cc2b10cd5,PennController,15,0,fillers,NULL,Scale,R2,Choice,Maybe no correct answer,1771505466727,1,filler,1,none,none,NULL
1771505681,b627c015550b94dbd6e9280cc2b10cd5,PennController,15,0,fillers,NULL,Scale,R3,Choice,Some of them would disagree with me,1771505467568,1,filler,1,none,none,NULL
1771505681,b627c015550b94dbd6e9280cc2b10cd5,PennController,15,0,fillers,NULL,Scale,R4,Choice,A little difficult,1771505468904,1,filler,1,none,none,NULL
1771505681,b627c015550b94dbd6e9280cc2b10cd5,PennController,15,0,fillers,NULL,PennController,18,_Trial_,End,1771505470579,1,filler,1,none,none,NULL
1771505681,b627c015550b94dbd6e9280cc2b10cd5,PennController,21,0,fillers,NULL,PennController,24,_Header_,Start,1771505470582,1,filler,7,none,none,NULL
1771505681,b627c015550b94dbd6e9280cc2b10cd5,PennController,21,0,fillers,NULL,PennController,24,_Trial_,Start,1771505470582,1,filler,7,none,none,NULL
1771505681,b627c015550b94dbd6e9280cc2b10cd5,PennController,21,0,fillers,NULL,PennController,24,_Header_,End,1771505470834,1,filler,7,none,none,NULL
1771505681,b627c015550b94dbd6e9280cc2b10cd5,PennController,21,0,fillers,NULL,Scale,R1B,Choice,Somewhat bad,1771505472130,1,filler,7,none,none,NULL
1771505681,b627c015550b94dbd6e9280cc2b10cd5,PennController,21,0,fillers,NULL,Scale,R3,Choice,Some of them would agree with me,1771505473326,1,filler,7,none,none,NULL
1771505681,b627c015550b94dbd6e9280cc2b10cd5,PennController,21,0,fillers,NULL,Scale,R2,Choice,Maybe no correct answer,1771505473909,1,filler,7,none,none,NULL
1771505681,b627c015550b94dbd6e9280cc2b10cd5,PennController,21,0,fillers,NULL,Scale,R4,Choice,A little difficult,1771505476901,1,filler,7,none,none,NULL
1771505681,b627c015550b94dbd6e9280cc2b10cd5,PennController,21,0,fillers,NULL,PennController,24,_Trial_,End,1771505478458,1,filler,7,none,none,NULL
1771505681,b627c015550b94dbd6e9280cc2b10cd5,PennController,28,0,fillers,NULL,PennController,31,_Header_,Start,1771505478462,1,filler,14,none,none,NULL
1771505681,b627c015550b94dbd6e9280cc2b10cd5,PennController,28,0,fillers,NULL,PennController,31,_Trial_,Start,1771505478462,1,filler,14,none,none,NULL
1771505681,b627c015550b94dbd6e9280cc2b10cd5,PennController,28,0,fillers,NULL,PennController,31,_Header_,End,1771505478715,1,filler,14,none,none,NULL
1771505681,b627c015550b94dbd6e9280cc2b10cd5,PennController,28,0,fillers,NULL,Scale,R1B,Choice,Somewhat wrong,1771505490978,1,filler,14,none,none,NULL
1771505681,b627c015550b94dbd6e9280cc2b10cd5,PennController,28,0,fillers,NULL,Scale,R2,Choice,Probably there is a correct answer,1771505492102,1,filler,14,none,none,NULL
1771505681,b627c015550b94dbd6e9280cc2b10cd5,PennController,28,0,fillers,NULL,Scale,R3,Choice,Some of them would disagree with me,1771505493221,1,filler,14,none,none,NULL
1771505681,b627c015550b94dbd6e9280cc2b10cd5,PennController,28,0,fillers,NULL,Scale,R4,Choice,A little difficult,1771505498027,1,filler,14,none,none,NULL
1771505681,b627c015550b94dbd6e9280cc2b10cd5,PennController,28,0,fillers,NULL,PennController,31,_Trial_,End,1771505499800,1,filler,14,none,none,NULL
1771505681,b627c015550b94dbd6e9280cc2b10cd5,PennController,26,0,fillers,NULL,PennController,29,_Header_,Start,1771505499802,1,filler,12,none,none,NULL
1771505681,b627c015550b94dbd6e9280cc2b10cd5,PennController,26,0,fillers,NULL,PennController,29,_Trial_,Start,1771505499802,1,filler,12,none,none,NULL
1771505681,b627c015550b94dbd6e9280cc2b10cd5,PennController,26,0,fillers,NULL,PennController,29,_Header_,End,1771505500055,1,filler,12,none,none,NULL
1771505681,b627c015550b94dbd6e9280cc2b10cd5,PennController,26,0,fillers,NULL,Scale,R1B,Choice,Somewhat wrong,1771505503407,1,filler,12,none,none,NULL
1771505681,b627c015550b94dbd6e9280cc2b10cd5,PennController,26,0,fillers,NULL,Scale,R2,Choice,Maybe there is a correct answer,1771505504202,1,filler,12,none,none,NULL
1771505681,b627c015550b94dbd6e9280cc2b10cd5,PennController,26,0,fillers,NULL,Scale,R3,Choice,Some of them would agree with me,1771505505155,1,filler,12,none,none,NULL
1771505681,b627c015550b94dbd6e9280cc2b10cd5,PennController,26,0,fillers,NULL,Scale,R4,Choice,A little easy,1771505509417,1,filler,12,none,none,NULL
1771505681,b627c015550b94dbd6e9280cc2b10cd5,PennController,26,0,fillers,NULL,PennController,29,_Trial_,End,1771505510636,1,filler,12,none,none,NULL
# 13. Comments.
1771505681,b627c015550b94dbd6e9280cc2b10cd5,PennController,42,0,instructions2,NULL,PennController,5,_Header_,Start,1771505510639,NULL
1771505681,b627c015550b94dbd6e9280cc2b10cd5,PennController,42,0,instructions2,NULL,PennController,5,_Trial_,Start,1771505510639,NULL
1771505681,b627c015550b94dbd6e9280cc2b10cd5,PennController,42,0,instructions2,NULL,PennController,5,_Header_,End,1771505510891,NULL
1771505681,b627c015550b94dbd6e9280cc2b10cd5,PennController,42,0,instructions2,NULL,PennController,5,_Trial_,End,1771505526726,NULL
# 13. Phase.
# 14. TrialType.
# 15. Number.
# 16. Valence.
# 17. Group.
# 18. Comments.
1771505681,b627c015550b94dbd6e9280cc2b10cd5,PennController,35,0,test_phase2,NULL,PennController,38,_Header_,Start,1771505526728,2,test,4,Neg,A,NULL
1771505681,b627c015550b94dbd6e9280cc2b10cd5,PennController,35,0,test_phase2,NULL,PennController,38,_Trial_,Start,1771505526728,2,test,4,Neg,A,NULL
1771505681,b627c015550b94dbd6e9280cc2b10cd5,PennController,35,0,test_phase2,NULL,PennController,38,_Header_,End,1771505526981,2,test,4,Neg,A,NULL
1771505681,b627c015550b94dbd6e9280cc2b10cd5,PennController,35,0,test_phase2,NULL,Scale,R5,Choice,Maybe neither of us needs to be mistaken,1771505561292,2,test,4,Neg,A,NULL
1771505681,b627c015550b94dbd6e9280cc2b10cd5,PennController,35,0,test_phase2,NULL,Scale,R6,Choice,Mildly uncomfortable,1771505564482,2,test,4,Neg,A,NULL
1771505681,b627c015550b94dbd6e9280cc2b10cd5,PennController,35,0,test_phase2,NULL,PennController,38,_Trial_,End,1771505565396,2,test,4,Neg,A,NULL
1771505681,b627c015550b94dbd6e9280cc2b10cd5,PennController,31,0,test_phase2,NULL,PennController,34,_Header_,Start,1771505565399,2,test,5,Pos,A,NULL
1771505681,b627c015550b94dbd6e9280cc2b10cd5,PennController,31,0,test_phase2,NULL,PennController,34,_Trial_,Start,1771505565399,2,test,5,Pos,A,NULL
1771505681,b627c015550b94dbd6e9280cc2b10cd5,PennController,31,0,test_phase2,NULL,PennController,34,_Header_,End,1771505565652,2,test,5,Pos,A,NULL
1771505681,b627c015550b94dbd6e9280cc2b10cd5,PennController,31,0,test_phase2,NULL,Scale,R5,Choice,Probably neither of us needs to be mistaken,1771505567904,2,test,5,Pos,A,NULL
1771505681,b627c015550b94dbd6e9280cc2b10cd5,PennController,31,0,test_phase2,NULL,Scale,R6,Choice,Mildly uncomfortable,1771505570369,2,test,5,Pos,A,NULL
1771505681,b627c015550b94dbd6e9280cc2b10cd5,PennController,31,0,test_phase2,NULL,PennController,34,_Trial_,End,1771505571842,2,test,5,Pos,A,NULL
1771505681,b627c015550b94dbd6e9280cc2b10cd5,PennController,38,0,test_phase2,NULL,PennController,41,_Header_,Start,1771505571844,2,test,10,Neg,A,NULL
1771505681,b627c015550b94dbd6e9280cc2b10cd5,PennController,38,0,test_phase2,NULL,PennController,41,_Trial_,Start,1771505571844,2,test,10,Neg,A,NULL
1771505681,b627c015550b94dbd6e9280cc2b10cd5,PennController,38,0,test_phase2,NULL,PennController,41,_Header_,End,1771505572097,2,test,10,Neg,A,NULL
1771505681,b627c015550b94dbd6e9280cc2b10cd5,PennController,38,0,test_phase2,NULL,Scale,R5,Choice,Maybe neither of us needs to be mistaken,1771505573813,2,test,10,Neg,A,NULL
1771505681,b627c015550b94dbd6e9280cc2b10cd5,PennController,38,0,test_phase2,NULL,Scale,R6,Choice,Mildly uncomfortable,1771505574809,2,test,10,Neg,A,NULL
1771505681,b627c015550b94dbd6e9280cc2b10cd5,PennController,38,0,test_phase2,NULL,PennController,41,_Trial_,End,1771505575852,2,test,10,Neg,A,NULL
1771505681,b627c015550b94dbd6e9280cc2b10cd5,PennController,34,0,test_phase2,NULL,PennController,37,_Header_,Start,1771505575855,2,test,2,Neg,A,NULL
1771505681,b627c015550b94dbd6e9280cc2b10cd5,PennController,34,0,test_phase2,NULL,PennController,37,_Trial_,Start,1771505575855,2,test,2,Neg,A,NULL
1771505681,b627c015550b94dbd6e9280cc2b10cd5,PennController,34,0,test_phase2,NULL,PennController,37,_Header_,End,1771505576107,2,test,2,Neg,A,NULL
1771505681,b627c015550b94dbd6e9280cc2b10cd5,PennController,34,0,test_phase2,NULL,Scale,R5,Choice,Maybe neither of us needs to be mistaken,1771505577398,2,test,2,Neg,A,NULL
1771505681,b627c015550b94dbd6e9280cc2b10cd5,PennController,34,0,test_phase2,NULL,Scale,R6,Choice,Mildly uncomfortable,1771505578254,2,test,2,Neg,A,NULL
1771505681,b627c015550b94dbd6e9280cc2b10cd5,PennController,34,0,test_phase2,NULL,PennController,37,_Trial_,End,1771505579299,2,test,2,Neg,A,NULL
1771505681,b627c015550b94dbd6e9280cc2b10cd5,PennController,32,0,test_phase2,NULL,PennController,35,_Header_,Start,1771505579302,2,test,7,Pos,A,NULL
1771505681,b627c015550b94dbd6e9280cc2b10cd5,PennController,32,0,test_phase2,NULL,PennController,35,_Trial_,Start,1771505579302,2,test,7,Pos,A,NULL
1771505681,b627c015550b94dbd6e9280cc2b10cd5,PennController,32,0,test_phase2,NULL,PennController,35,_Header_,End,1771505579553,2,test,7,Pos,A,NULL
1771505681,b627c015550b94dbd6e9280cc2b10cd5,PennController,32,0,test_phase2,NULL,Scale,R5,Choice,The other person is maybe mistaken,1771505580774,2,test,7,Pos,A,NULL
1771505681,b627c015550b94dbd6e9280cc2b10cd5,PennController,32,0,test_phase2,NULL,Scale,R6,Choice,Mildly uncomfortable,1771505581536,2,test,7,Pos,A,NULL
1771505681,b627c015550b94dbd6e9280cc2b10cd5,PennController,32,0,test_phase2,NULL,PennController,35,_Trial_,End,1771505582408,2,test,7,Pos,A,NULL
1771505681,b627c015550b94dbd6e9280cc2b10cd5,PennController,29,0,test_phase2,NULL,PennController,32,_Header_,Start,1771505582409,2,test,1,Pos,A,NULL
1771505681,b627c015550b94dbd6e9280cc2b10cd5,PennController,29,0,test_phase2,NULL,PennController,32,_Trial_,Start,1771505582409,2,test,1,Pos,A,NULL
1771505681,b627c015550b94dbd6e9280cc2b10cd5,PennController,29,0,test_phase2,NULL,PennController,32,_Header_,End,1771505582662,2,test,1,Pos,A,NULL
1771505681,b627c015550b94dbd6e9280cc2b10cd5,PennController,29,0,test_phase2,NULL,Scale,R5,Choice,Probably neither of us needs to be mistaken,1771505583928,2,test,1,Pos,A,NULL
1771505681,b627c015550b94dbd6e9280cc2b10cd5,PennController,29,0,test_phase2,NULL,Scale,R6,Choice,Mildly uncomfortable,1771505584925,2,test,1,Pos,A,NULL
1771505681,b627c015550b94dbd6e9280cc2b10cd5,PennController,29,0,test_phase2,NULL,PennController,32,_Trial_,End,1771505585520,2,test,1,Pos,A,NULL
1771505681,b627c015550b94dbd6e9280cc2b10cd5,PennController,30,0,test_phase2,NULL,PennController,33,_Header_,Start,1771505585521,2,test,3,Pos,A,NULL
1771505681,b627c015550b94dbd6e9280cc2b10cd5,PennController,30,0,test_phase2,NULL,PennController,33,_Trial_,Start,1771505585521,2,test,3,Pos,A,NULL
1771505681,b627c015550b94dbd6e9280cc2b10cd5,PennController,30,0,test_phase2,NULL,PennController,33,_Header_,End,1771505585774,2,test,3,Pos,A,NULL
1771505681,b627c015550b94dbd6e9280cc2b10cd5,PennController,30,0,test_phase2,NULL,Scale,R5,Choice,Maybe neither of us needs to be mistaken,1771505586879,2,test,3,Pos,A,NULL
1771505681,b627c015550b94dbd6e9280cc2b10cd5,PennController,30,0,test_phase2,NULL,Scale,R6,Choice,Mildly comfortable,1771505587557,2,test,3,Pos,A,NULL
1771505681,b627c015550b94dbd6e9280cc2b10cd5,PennController,30,0,test_phase2,NULL,PennController,33,_Trial_,End,1771505590141,2,test,3,Pos,A,NULL
1771505681,b627c015550b94dbd6e9280cc2b10cd5,PennController,37,0,test_phase2,NULL,PennController,40,_Header_,Start,1771505590144,2,test,8,Neg,A,NULL
1771505681,b627c015550b94dbd6e9280cc2b10cd5,PennController,37,0,test_phase2,NULL,PennController,40,_Trial_,Start,1771505590144,2,test,8,Neg,A,NULL
1771505681,b627c015550b94dbd6e9280cc2b10cd5,PennController,37,0,test_phase2,NULL,PennController,40,_Header_,End,1771505590396,2,test,8,Neg,A,NULL
1771505681,b627c015550b94dbd6e9280cc2b10cd5,PennController,37,0,test_phase2,NULL,Scale,R5,Choice,The other person is maybe mistaken,1771505591435,2,test,8,Neg,A,NULL
1771505681,b627c015550b94dbd6e9280cc2b10cd5,PennController,37,0,test_phase2,NULL,Scale,R6,Choice,Mildly comfortable,1771505592141,2,test,8,Neg,A,NULL
1771505681,b627c015550b94dbd6e9280cc2b10cd5,PennController,37,0,test_phase2,NULL,PennController,40,_Trial_,End,1771505592894,2,test,8,Neg,A,NULL
1771505681,b627c015550b94dbd6e9280cc2b10cd5,PennController,36,0,test_phase2,NULL,PennController,39,_Header_,Start,1771505592896,2,test,6,Neg,A,NULL
1771505681,b627c015550b94dbd6e9280cc2b10cd5,PennController,36,0,test_phase2,NULL,PennController,39,_Trial_,Start,1771505592896,2,test,6,Neg,A,NULL
1771505681,b627c015550b94dbd6e9280cc2b10cd5,PennController,36,0,test_phase2,NULL,PennController,39,_Header_,End,1771505593149,2,test,6,Neg,A,NULL
1771505681,b627c015550b94dbd6e9280cc2b10cd5,PennController,36,0,test_phase2,NULL,Scale,R5,Choice,Neither of us needs to be mistaken,1771505594445,2,test,6,Neg,A,NULL
1771505681,b627c015550b94dbd6e9280cc2b10cd5,PennController,36,0,test_phase2,NULL,Scale,R6,Choice,Very uncomfortable,1771505595165,2,test,6,Neg,A,NULL
1771505681,b627c015550b94dbd6e9280cc2b10cd5,PennController,36,0,test_phase2,NULL,PennController,39,_Trial_,End,1771505595884,2,test,6,Neg,A,NULL
1771505681,b627c015550b94dbd6e9280cc2b10cd5,PennController,33,0,test_phase2,NULL,PennController,36,_Header_,Start,1771505595886,2,test,9,Pos,A,NULL
1771505681,b627c015550b94dbd6e9280cc2b10cd5,PennController,33,0,test_phase2,NULL,PennController,36,_Trial_,Start,1771505595886,2,test,9,Pos,A,NULL
1771505681,b627c015550b94dbd6e9280cc2b10cd5,PennController,33,0,test_phase2,NULL,PennController,36,_Header_,End,1771505596137,2,test,9,Pos,A,NULL
1771505681,b627c015550b94dbd6e9280cc2b10cd5,PennController,33,0,test_phase2,NULL,Scale,R5,Choice,Probably neither of us needs to be mistaken,1771505597134,2,test,9,Pos,A,NULL
1771505681,b627c015550b94dbd6e9280cc2b10cd5,PennController,33,0,test_phase2,NULL,Scale,R6,Choice,Extremely uncomfortable,1771505597818,2,test,9,Pos,A,NULL
1771505681,b627c015550b94dbd6e9280cc2b10cd5,PennController,33,0,test_phase2,NULL,PennController,36,_Trial_,End,1771505598534,2,test,9,Pos,A,NULL
# 13. Comments.
1771505681,b627c015550b94dbd6e9280cc2b10cd5,PennController,40,0,demo,NULL,PennController,3,_Header_,Start,1771505598537,NULL
1771505681,b627c015550b94dbd6e9280cc2b10cd5,PennController,40,0,demo,NULL,PennController,3,_Trial_,Start,1771505598537,NULL
1771505681,b627c015550b94dbd6e9280cc2b10cd5,PennController,40,0,demo,NULL,PennController,3,_Header_,End,1771505598787,NULL
1771505681,b627c015550b94dbd6e9280cc2b10cd5,PennController,40,0,demo,NULL,PennController,3,_Trial_,End,1771505680766,NULL
1771505681,b627c015550b94dbd6e9280cc2b10cd5,PennController,40,0,demo,NULL,Html,bg_form,gender,woman,1771505680766,radio button
1771505681,b627c015550b94dbd6e9280cc2b10cd5,PennController,40,0,demo,NULL,Html,bg_form,rightwrong,no,1771505680766,radio button
1771505681,b627c015550b94dbd6e9280cc2b10cd5,PennController,40,0,demo,NULL,Html,bg_form,lang4,unchecked,1771505680766,checkbox
1771505681,b627c015550b94dbd6e9280cc2b10cd5,PennController,40,0,demo,NULL,Html,bg_form,religion,unchecked,1771505680766,checkbox
1771505681,b627c015550b94dbd6e9280cc2b10cd5,PennController,40,0,demo,NULL,Html,bg_form,religion,unchecked,1771505680766,checkbox
1771505681,b627c015550b94dbd6e9280cc2b10cd5,PennController,40,0,demo,NULL,Html,bg_form,religion,unchecked,1771505680766,checkbox
1771505681,b627c015550b94dbd6e9280cc2b10cd5,PennController,40,0,demo,NULL,Html,bg_form,religion,unchecked,1771505680766,checkbox
1771505681,b627c015550b94dbd6e9280cc2b10cd5,PennController,40,0,demo,NULL,Html,bg_form,religion,unchecked,1771505680766,checkbox
1771505681,b627c015550b94dbd6e9280cc2b10cd5,PennController,40,0,demo,NULL,Html,bg_form,religion,unchecked,1771505680766,checkbox
1771505681,b627c015550b94dbd6e9280cc2b10cd5,PennController,40,0,demo,NULL,Html,bg_form,religion,unchecked,1771505680766,checkbox
1771505681,b627c015550b94dbd6e9280cc2b10cd5,PennController,40,0,demo,NULL,Html,bg_form,religion,unchecked,1771505680766,checkbox
1771505681,b627c015550b94dbd6e9280cc2b10cd5,PennController,40,0,demo,NULL,Html,bg_form,religion,checked,1771505680766,checkbox
1771505681,b627c015550b94dbd6e9280cc2b10cd5,PennController,40,0,demo,NULL,Html,bg_form,religion,unchecked,1771505680766,checkbox
1771505681,b627c015550b94dbd6e9280cc2b10cd5,PennController,40,0,demo,NULL,Html,bg_form,moral_reason,unchecked,1771505680766,checkbox
1771505681,b627c015550b94dbd6e9280cc2b10cd5,PennController,40,0,demo,NULL,Html,bg_form,moral_reason,unchecked,1771505680766,checkbox
1771505681,b627c015550b94dbd6e9280cc2b10cd5,PennController,40,0,demo,NULL,Html,bg_form,moral_reason,checked,1771505680766,checkbox
1771505681,b627c015550b94dbd6e9280cc2b10cd5,PennController,40,0,demo,NULL,Html,bg_form,moral_reason,unchecked,1771505680766,checkbox
1771505681,b627c015550b94dbd6e9280cc2b10cd5,PennController,40,0,demo,NULL,Html,bg_form,lang3,,1771505680766,text input
1771505681,b627c015550b94dbd6e9280cc2b10cd5,PennController,40,0,demo,NULL,Html,bg_form,lang2,English ,1771505680766,text input
1771505681,b627c015550b94dbd6e9280cc2b10cd5,PennController,40,0,demo,NULL,Html,bg_form,lang1,Greek ,1771505680766,text input
1771505681,b627c015550b94dbd6e9280cc2b10cd5,PennController,40,0,demo,NULL,Html,bg_form,country,Uk,1771505680766,text input
#
# Results on Thu, 19 Feb 2026 12:56:54 GMT
# USER AGENT: Mozilla/5.0 (Windows NT 10.0; Win64; x64) AppleWebKit/537.36 (KHTML, like Gecko) Chrome/145.0.0.0 Safari/537.36 Edg/145.0.0.0
# Design number was non-random = 0
#
# Columns below this comment are as follows:
# 1. Results reception time.
# 2. MD5 hash of participant's IP address.
# 3. Controller name.
# 4. Order number of item.
# 5. Inner element number.
# 6. Label.
# 7. Latin Square Group.
# 8. PennElementType.
# 9. PennElementName.
# 10. Parameter.
# 11. Value.
# 12. EventTime.
# 13. Comments.
1771505814,ad651526b912009cb10d2548349c0cd7,PennController,0,0,welcome,NULL,PennController,0,_Trial_,Start,1771505039311,NULL
1771505814,ad651526b912009cb10d2548349c0cd7,PennController,0,0,welcome,NULL,PennController,0,_Header_,Start,1771505039311,NULL
1771505814,ad651526b912009cb10d2548349c0cd7,PennController,0,0,welcome,NULL,PennController,0,_Header_,End,1771505039562,NULL
1771505814,ad651526b912009cb10d2548349c0cd7,PennController,0,0,welcome,NULL,PennController,0,_Trial_,End,1771505042972,NULL
1771505814,ad651526b912009cb10d2548349c0cd7,PennController,39,0,consent,NULL,PennController,2,_Trial_,Start,1771505042978,NULL
1771505814,ad651526b912009cb10d2548349c0cd7,PennController,39,0,consent,NULL,PennController,2,_Header_,Start,1771505042978,NULL
1771505814,ad651526b912009cb10d2548349c0cd7,PennController,39,0,consent,NULL,PennController,2,_Header_,End,1771505043231,NULL
1771505814,ad651526b912009cb10d2548349c0cd7,PennController,39,0,consent,NULL,PennController,2,_Trial_,End,1771505063837,NULL
1771505814,ad651526b912009cb10d2548349c0cd7,PennController,41,0,instructions1,NULL,PennController,4,_Trial_,Start,1771505063839,NULL
1771505814,ad651526b912009cb10d2548349c0cd7,PennController,41,0,instructions1,NULL,PennController,4,_Header_,Start,1771505063839,NULL
1771505814,ad651526b912009cb10d2548349c0cd7,PennController,41,0,instructions1,NULL,PennController,4,_Header_,End,1771505064091,NULL
1771505814,ad651526b912009cb10d2548349c0cd7,PennController,41,0,instructions1,NULL,PennController,4,_Trial_,End,1771505070234,NULL
# 13. TrialType.
# 14. Number.
# 15. Valence.
# 16. Group.
# 17. Comments.
1771505814,ad651526b912009cb10d2548349c0cd7,PennController,4,0,practice,NULL,PennController,7,_Trial_,Start,1771505070237,Practice,2,none,none,NULL
1771505814,ad651526b912009cb10d2548349c0cd7,PennController,4,0,practice,NULL,PennController,7,_Header_,Start,1771505070237,Practice,2,none,none,NULL
1771505814,ad651526b912009cb10d2548349c0cd7,PennController,4,0,practice,NULL,PennController,7,_Header_,End,1771505070490,Practice,2,none,none,NULL
1771505814,ad651526b912009cb10d2548349c0cd7,PennController,4,0,practice,NULL,Scale,R1B,Choice,Somewhat wrong,1771505081743,Practice,2,none,none,NULL
1771505814,ad651526b912009cb10d2548349c0cd7,PennController,4,0,practice,NULL,Scale,R2,Choice,Probably there is a correct answer,1771505092905,Practice,2,none,none,NULL
1771505814,ad651526b912009cb10d2548349c0cd7,PennController,4,0,practice,NULL,Scale,R3,Choice,Most of them would agree with me,1771505098137,Practice,2,none,none,NULL
1771505814,ad651526b912009cb10d2548349c0cd7,PennController,4,0,practice,NULL,Scale,R4,Choice,Very easy,1771505101368,Practice,2,none,none,NULL
1771505814,ad651526b912009cb10d2548349c0cd7,PennController,4,0,practice,NULL,PennController,7,_Trial_,End,1771505103070,Practice,2,none,none,NULL
1771505814,ad651526b912009cb10d2548349c0cd7,PennController,3,0,practice,NULL,PennController,6,_Trial_,Start,1771505103072,Practice,1,none,none,NULL
1771505814,ad651526b912009cb10d2548349c0cd7,PennController,3,0,practice,NULL,PennController,6,_Header_,Start,1771505103072,Practice,1,none,none,NULL
1771505814,ad651526b912009cb10d2548349c0cd7,PennController,3,0,practice,NULL,PennController,6,_Header_,End,1771505103326,Practice,1,none,none,NULL
1771505814,ad651526b912009cb10d2548349c0cd7,PennController,3,0,practice,NULL,Scale,R1B,Choice,Somewhat bad,1771505112025,Practice,1,none,none,NULL
1771505814,ad651526b912009cb10d2548349c0cd7,PennController,3,0,practice,NULL,Scale,R2,Choice,Probably there is a correct answer,1771505118361,Practice,1,none,none,NULL
1771505814,ad651526b912009cb10d2548349c0cd7,PennController,3,0,practice,NULL,Scale,R3,Choice,Most of them would agree with me,1771505125401,Practice,1,none,none,NULL
1771505814,ad651526b912009cb10d2548349c0cd7,PennController,3,0,practice,NULL,Scale,R4,Choice,Somewhat easy,1771505128593,Practice,1,none,none,NULL
1771505814,ad651526b912009cb10d2548349c0cd7,PennController,3,0,practice,NULL,PennController,6,_Trial_,End,1771505130293,Practice,1,none,none,NULL
# 13. Phase.
# 14. TrialType.
# 15. Number.
# 16. Valence.
# 17. Group.
# 18. Comments.
1771505814,ad651526b912009cb10d2548349c0cd7,PennController,12,0,test_phase1,NULL,PennController,15,_Trial_,Start,1771505130296,1,test,6,Neg,A,NULL
1771505814,ad651526b912009cb10d2548349c0cd7,PennController,12,0,test_phase1,NULL,PennController,15,_Header_,Start,1771505130296,1,test,6,Neg,A,NULL
1771505814,ad651526b912009cb10d2548349c0cd7,PennController,12,0,test_phase1,NULL,PennController,15,_Header_,End,1771505130547,1,test,6,Neg,A,NULL
1771505814,ad651526b912009cb10d2548349c0cd7,PennController,12,0,test_phase1,NULL,Scale,R1B,Choice,Good,1771505151952,1,test,6,Neg,A,NULL
1771505814,ad651526b912009cb10d2548349c0cd7,PennController,12,0,test_phase1,NULL,Scale,R2,Choice,Probably no correct answer,1771505156025,1,test,6,Neg,A,NULL
1771505814,ad651526b912009cb10d2548349c0cd7,PennController,12,0,test_phase1,NULL,Scale,R3,Choice,Most of them would agree with me,1771505158841,1,test,6,Neg,A,NULL
1771505814,ad651526b912009cb10d2548349c0cd7,PennController,12,0,test_phase1,NULL,Scale,R4,Choice,A little easy,1771505161201,1,test,6,Neg,A,NULL
1771505814,ad651526b912009cb10d2548349c0cd7,PennController,12,0,test_phase1,NULL,PennController,15,_Trial_,End,1771505163102,1,test,6,Neg,A,NULL
1771505814,ad651526b912009cb10d2548349c0cd7,PennController,7,0,test_phase1,NULL,PennController,10,_Trial_,Start,1771505163105,1,test,5,Pos,A,NULL
1771505814,ad651526b912009cb10d2548349c0cd7,PennController,7,0,test_phase1,NULL,PennController,10,_Header_,Start,1771505163105,1,test,5,Pos,A,NULL
1771505814,ad651526b912009cb10d2548349c0cd7,PennController,7,0,test_phase1,NULL,PennController,10,_Header_,End,1771505163355,1,test,5,Pos,A,NULL
1771505814,ad651526b912009cb10d2548349c0cd7,PennController,7,0,test_phase1,NULL,Scale,R1B,Choice,Good,1771505183065,1,test,5,Pos,A,NULL
1771505814,ad651526b912009cb10d2548349c0cd7,PennController,7,0,test_phase1,NULL,Scale,R2,Choice,Definitely there is a correct answer,1771505188881,1,test,5,Pos,A,NULL
1771505814,ad651526b912009cb10d2548349c0cd7,PennController,7,0,test_phase1,NULL,Scale,R3,Choice,Most of them would agree with me,1771505190352,1,test,5,Pos,A,NULL
