#
# Results on Thu, 19 Feb 2026 12:59:30 GMT
# USER AGENT: Mozilla/5.0 (Windows NT 10.0; Win64; x64) AppleWebKit/537.36 (KHTML, like Gecko) Chrome/144.0.0.0 Safari/537.36
# Design number was non-random = 0
#
# Columns below this comment are as follows:
# 1. Results reception time.
# 2. MD5 hash of participant's IP address.
# 3. Controller name.
# 4. Order number of item.
# 5. Inner element number.
# 6. Label.
# 7. Latin Square Group.
# 8. PennElementType.
# 9. PennElementName.
# 10. Parameter.
# 11. Value.
# 12. EventTime.
# 13. Comments.
1771505970,883d757d76365eee621bfa2054d04c40,PennController,0,0,welcome,NULL,PennController,0,_Trial_,Start,1771505093262,NULL
1771505970,883d757d76365eee621bfa2054d04c40,PennController,0,0,welcome,NULL,PennController,0,_Header_,Start,1771505093262,NULL
1771505970,883d757d76365eee621bfa2054d04c40,PennController,0,0,welcome,NULL,PennController,0,_Header_,End,1771505093519,NULL
1771505970,883d757d76365eee621bfa2054d04c40,PennController,0,0,welcome,NULL,PennController,0,_Trial_,End,1771505096060,NULL
1771505970,883d757d76365eee621bfa2054d04c40,PennController,39,0,consent,NULL,PennController,2,_Trial_,Start,1771505096064,NULL
1771505970,883d757d76365eee621bfa2054d04c40,PennController,39,0,consent,NULL,PennController,2,_Header_,Start,1771505096064,NULL
1771505970,883d757d76365eee621bfa2054d04c40,PennController,39,0,consent,NULL,PennController,2,_Header_,End,1771505096318,NULL
1771505970,883d757d76365eee621bfa2054d04c40,PennController,39,0,consent,NULL,PennController,2,_Trial_,End,1771505106335,NULL
1771505970,883d757d76365eee621bfa2054d04c40,PennController,41,0,instructions1,NULL,PennController,4,_Trial_,Start,1771505106337,NULL
1771505970,883d757d76365eee621bfa2054d04c40,PennController,41,0,instructions1,NULL,PennController,4,_Header_,Start,1771505106337,NULL
1771505970,883d757d76365eee621bfa2054d04c40,PennController,41,0,instructions1,NULL,PennController,4,_Header_,End,1771505106595,NULL
1771505970,883d757d76365eee621bfa2054d04c40,PennController,41,0,instructions1,NULL,PennController,4,_Trial_,End,1771505112029,NULL
# 13. TrialType.
# 14. Number.
# 15. Valence.
# 16. Group.
# 17. Comments.
1771505970,883d757d76365eee621bfa2054d04c40,PennController,3,0,practice,NULL,PennController,6,_Trial_,Start,1771505112030,Practice,1,none,none,NULL
1771505970,883d757d76365eee621bfa2054d04c40,PennController,3,0,practice,NULL,PennController,6,_Header_,Start,1771505112030,Practice,1,none,none,NULL
1771505970,883d757d76365eee621bfa2054d04c40,PennController,3,0,practice,NULL,PennController,6,_Header_,End,1771505112284,Practice,1,none,none,NULL
1771505970,883d757d76365eee621bfa2054d04c40,PennController,3,0,practice,NULL,Scale,R1B,Choice,Somewhat bad,1771505137287,Practice,1,none,none,NULL
1771505970,883d757d76365eee621bfa2054d04c40,PennController,3,0,practice,NULL,Scale,R2,Choice,Probably there is a correct answer,1771505149998,Practice,1,none,none,NULL
1771505970,883d757d76365eee621bfa2054d04c40,PennController,3,0,practice,NULL,Scale,R3,Choice,Most of them would agree with me,1771505155345,Practice,1,none,none,NULL
1771505970,883d757d76365eee621bfa2054d04c40,PennController,3,0,practice,NULL,Scale,R4,Choice,A little easy,1771505159099,Practice,1,none,none,NULL
1771505970,883d757d76365eee621bfa2054d04c40,PennController,3,0,practice,NULL,PennController,6,_Trial_,End,1771505160268,Practice,1,none,none,NULL
1771505970,883d757d76365eee621bfa2054d04c40,PennController,4,0,practice,NULL,PennController,7,_Trial_,Start,1771505160270,Practice,2,none,none,NULL
1771505970,883d757d76365eee621bfa2054d04c40,PennController,4,0,practice,NULL,PennController,7,_Header_,Start,1771505160271,Practice,2,none,none,NULL
1771505970,883d757d76365eee621bfa2054d04c40,PennController,4,0,practice,NULL,PennController,7,_Header_,End,1771505160528,Practice,2,none,none,NULL
1771505970,883d757d76365eee621bfa2054d04c40,PennController,4,0,practice,NULL,Scale,R1B,Choice,Somewhat wrong,1771505171482,Practice,2,none,none,NULL
1771505970,883d757d76365eee621bfa2054d04c40,PennController,4,0,practice,NULL,Scale,R2,Choice,Definitely there is a correct answer,1771505175187,Practice,2,none,none,NULL
1771505970,883d757d76365eee621bfa2054d04c40,PennController,4,0,practice,NULL,Scale,R3,Choice,Almost everyone would agree with me,1771505184973,Practice,2,none,none,NULL
1771505970,883d757d76365eee621bfa2054d04c40,PennController,4,0,practice,NULL,Scale,R4,Choice,Very easy,1771505186401,Practice,2,none,none,NULL
1771505970,883d757d76365eee621bfa2054d04c40,PennController,4,0,practice,NULL,PennController,7,_Trial_,End,1771505187697,Practice,2,none,none,NULL
# 13. Phase.
# 14. TrialType.
# 15. Number.
# 16. Valence.
# 17. Group.
# 18. Comments.
1771505970,883d757d76365eee621bfa2054d04c40,PennController,10,0,test_phase1,NULL,PennController,13,_Trial_,Start,1771505187699,1,test,1,Neg,B,NULL
1771505970,883d757d76365eee621bfa2054d04c40,PennController,10,0,test_phase1,NULL,PennController,13,_Header_,Start,1771505187699,1,test,1,Neg,B,NULL
1771505970,883d757d76365eee621bfa2054d04c40,PennController,10,0,test_phase1,NULL,PennController,13,_Header_,End,1771505187956,1,test,1,Neg,B,NULL
1771505970,883d757d76365eee621bfa2054d04c40,PennController,10,0,test_phase1,NULL,Scale,R2,Choice,Definitely there is a correct answer,1771505199106,1,test,1,Neg,B,NULL
1771505970,883d757d76365eee621bfa2054d04c40,PennController,10,0,test_phase1,NULL,Scale,R1B,Choice,Bad,1771505202306,1,test,1,Neg,B,NULL
1771505970,883d757d76365eee621bfa2054d04c40,PennController,10,0,test_phase1,NULL,Scale,R3,Choice,Almost everyone would agree with me,1771505205451,1,test,1,Neg,B,NULL
1771505970,883d757d76365eee621bfa2054d04c40,PennController,10,0,test_phase1,NULL,Scale,R4,Choice,Very easy,1771505206985,1,test,1,Neg,B,NULL
1771505970,883d757d76365eee621bfa2054d04c40,PennController,10,0,test_phase1,NULL,PennController,13,_Trial_,End,1771505208192,1,test,1,Neg,B,NULL
1771505970,883d757d76365eee621bfa2054d04c40,PennController,7,0,test_phase1,NULL,PennController,10,_Trial_,Start,1771505208195,1,test,6,Pos,B,NULL
1771505970,883d757d76365eee621bfa2054d04c40,PennController,7,0,test_phase1,NULL,PennController,10,_Header_,Start,1771505208195,1,test,6,Pos,B,NULL
1771505970,883d757d76365eee621bfa2054d04c40,PennController,7,0,test_phase1,NULL,PennController,10,_Header_,End,1771505208451,1,test,6,Pos,B,NULL
1771505970,883d757d76365eee621bfa2054d04c40,PennController,7,0,test_phase1,NULL,Scale,R1B,Choice,Good,1771505219574,1,test,6,Pos,B,NULL
1771505970,883d757d76365eee621bfa2054d04c40,PennController,7,0,test_phase1,NULL,Scale,R2,Choice,Probably there is a correct answer,1771505222183,1,test,6,Pos,B,NULL
1771505970,883d757d76365eee621bfa2054d04c40,PennController,7,0,test_phase1,NULL,Scale,R3,Choice,Most of them would agree with me,1771505224229,1,test,6,Pos,B,NULL
1771505970,883d757d76365eee621bfa2054d04c40,PennController,7,0,test_phase1,NULL,Scale,R4,Choice,Somewhat easy,1771505227477,1,test,6,Pos,B,NULL
1771505970,883d757d76365eee621bfa2054d04c40,PennController,7,0,test_phase1,NULL,PennController,10,_Trial_,End,1771505228979,1,test,6,Pos,B,NULL
1771505970,883d757d76365eee621bfa2054d04c40,PennController,11,0,test_phase1,NULL,PennController,14,_Trial_,Start,1771505228981,1,test,3,Neg,B,NULL
1771505970,883d757d76365eee621bfa2054d04c40,PennController,11,0,test_phase1,NULL,PennController,14,_Header_,Start,1771505228981,1,test,3,Neg,B,NULL
1771505970,883d757d76365eee621bfa2054d04c40,PennController,11,0,test_phase1,NULL,PennController,14,_Header_,End,1771505229235,1,test,3,Neg,B,NULL
1771505970,883d757d76365eee621bfa2054d04c40,PennController,11,0,test_phase1,NULL,Scale,R1B,Choice,Somewhat wrong,1771505242857,1,test,3,Neg,B,NULL
1771505970,883d757d76365eee621bfa2054d04c40,PennController,11,0,test_phase1,NULL,Scale,R2,Choice,Probably there is a correct answer,1771505247990,1,test,3,Neg,B,NULL
1771505970,883d757d76365eee621bfa2054d04c40,PennController,11,0,test_phase1,NULL,Scale,R3,Choice,Most of them would agree with me,1771505250332,1,test,3,Neg,B,NULL
1771505970,883d757d76365eee621bfa2054d04c40,PennController,11,0,test_phase1,NULL,Scale,R4,Choice,Somewhat easy,1771505251574,1,test,3,Neg,B,NULL
1771505970,883d757d76365eee621bfa2054d04c40,PennController,11,0,test_phase1,NULL,PennController,14,_Trial_,End,1771505252597,1,test,3,Neg,B,NULL
1771505970,883d757d76365eee621bfa2054d04c40,PennController,9,0,test_phase1,NULL,PennController,12,_Trial_,Start,1771505252599,1,test,10,Pos,B,NULL
1771505970,883d757d76365eee621bfa2054d04c40,PennController,9,0,test_phase1,NULL,PennController,12,_Header_,Start,1771505252599,1,test,10,Pos,B,NULL
1771505970,883d757d76365eee621bfa2054d04c40,PennController,9,0,test_phase1,NULL,PennController,12,_Header_,End,1771505252850,1,test,10,Pos,B,NULL
1771505970,883d757d76365eee621bfa2054d04c40,PennController,9,0,test_phase1,NULL,Scale,R1B,Choice,Somewhat bad,1771505285575,1,test,10,Pos,B,NULL
1771505970,883d757d76365eee621bfa2054d04c40,PennController,9,0,test_phase1,NULL,Scale,R2,Choice,Maybe no correct answer,1771505290730,1,test,10,Pos,B,NULL
1771505970,883d757d76365eee621bfa2054d04c40,PennController,9,0,test_phase1,NULL,Scale,R3,Choice,Most of them would agree with me,1771505303653,1,test,10,Pos,B,NULL
1771505970,883d757d76365eee621bfa2054d04c40,PennController,9,0,test_phase1,NULL,Scale,R4,Choice,A little easy,1771505305822,1,test,10,Pos,B,NULL
1771505970,883d757d76365eee621bfa2054d04c40,PennController,9,0,test_phase1,NULL,PennController,12,_Trial_,End,1771505307043,1,test,10,Pos,B,NULL
1771505970,883d757d76365eee621bfa2054d04c40,PennController,8,0,test_phase1,NULL,PennController,11,_Trial_,Start,1771505307046,1,test,8,Pos,B,NULL
1771505970,883d757d76365eee621bfa2054d04c40,PennController,8,0,test_phase1,NULL,PennController,11,_Header_,Start,1771505307046,1,test,8,Pos,B,NULL
1771505970,883d757d76365eee621bfa2054d04c40,PennController,8,0,test_phase1,NULL,PennController,11,_Header_,End,1771505307305,1,test,8,Pos,B,NULL
1771505970,883d757d76365eee621bfa2054d04c40,PennController,8,0,test_phase1,NULL,Scale,R1B,Choice,Good,1771505321208,1,test,8,Pos,B,NULL
1771505970,883d757d76365eee621bfa2054d04c40,PennController,8,0,test_phase1,NULL,Scale,R2,Choice,Maybe there is a correct answer,1771505324797,1,test,8,Pos,B,NULL
1771505970,883d757d76365eee621bfa2054d04c40,PennController,8,0,test_phase1,NULL,Scale,R3,Choice,Most of them would agree with me,1771505330912,1,test,8,Pos,B,NULL
1771505970,883d757d76365eee621bfa2054d04c40,PennController,8,0,test_phase1,NULL,Scale,R4,Choice,Somewhat easy,1771505333336,1,test,8,Pos,B,NULL
1771505970,883d757d76365eee621bfa2054d04c40,PennController,8,0,test_phase1,NULL,PennController,11,_Trial_,End,1771505334326,1,test,8,Pos,B,NULL
1771505970,883d757d76365eee621bfa2054d04c40,PennController,12,0,test_phase1,NULL,PennController,15,_Trial_,Start,1771505334328,1,test,5,Neg,B,NULL
1771505970,883d757d76365eee621bfa2054d04c40,PennController,12,0,test_phase1,NULL,PennController,15,_Header_,Start,1771505334328,1,test,5,Neg,B,NULL
1771505970,883d757d76365eee621bfa2054d04c40,PennController,12,0,test_phase1,NULL,PennController,15,_Header_,End,1771505334580,1,test,5,Neg,B,NULL
1771505970,883d757d76365eee621bfa2054d04c40,PennController,12,0,test_phase1,NULL,Scale,R1B,Choice,Somewhat bad,1771505351941,1,test,5,Neg,B,NULL
1771505970,883d757d76365eee621bfa2054d04c40,PennController,12,0,test_phase1,NULL,Scale,R2,Choice,Probably there is a correct answer,1771505355042,1,test,5,Neg,B,NULL
1771505970,883d757d76365eee621bfa2054d04c40,PennController,12,0,test_phase1,NULL,Scale,R3,Choice,Most of them would agree with me,1771505356723,1,test,5,Neg,B,NULL
1771505970,883d757d76365eee621bfa2054d04c40,PennController,12,0,test_phase1,NULL,Scale,R4,Choice,Somewhat easy,1771505358411,1,test,5,Neg,B,NULL
1771505970,883d757d76365eee621bfa2054d04c40,PennController,12,0,test_phase1,NULL,PennController,15,_Trial_,End,1771505359496,1,test,5,Neg,B,NULL
1771505970,883d757d76365eee621bfa2054d04c40,PennController,14,0,test_phase1,NULL,PennController,17,_Trial_,Start,1771505359498,1,test,9,Neg,B,NULL
1771505970,883d757d76365eee621bfa2054d04c40,PennController,14,0,test_phase1,NULL,PennController,17,_Header_,Start,1771505359498,1,test,9,Neg,B,NULL
1771505970,883d757d76365eee621bfa2054d04c40,PennController,14,0,test_phase1,NULL,PennController,17,_Header_,End,1771505359749,1,test,9,Neg,B,NULL
1771505970,883d757d76365eee621bfa2054d04c40,PennController,14,0,test_phase1,NULL,Scale,R1B,Choice,Bad,1771505377374,1,test,9,Neg,B,NULL
1771505970,883d757d76365eee621bfa2054d04c40,PennController,14,0,test_phase1,NULL,Scale,R2,Choice,Definitely there is a correct answer,1771505379425,1,test,9,Neg,B,NULL
1771505970,883d757d76365eee621bfa2054d04c40,PennController,14,0,test_phase1,NULL,Scale,R3,Choice,Almost everyone would agree with me,1771505381420,1,test,9,Neg,B,NULL
1771505970,883d757d76365eee621bfa2054d04c40,PennController,14,0,test_phase1,NULL,Scale,R4,Choice,Very easy,1771505383748,1,test,9,Neg,B,NULL
1771505970,883d757d76365eee621bfa2054d04c40,PennController,14,0,test_phase1,NULL,PennController,17,_Trial_,End,1771505384780,1,test,9,Neg,B,NULL
1771505970,883d757d76365eee621bfa2054d04c40,PennController,6,0,test_phase1,NULL,PennController,9,_Trial_,Start,1771505384782,1,test,4,Pos,B,NULL
1771505970,883d757d76365eee621bfa2054d04c40,PennController,6,0,test_phase1,NULL,PennController,9,_Header_,Start,1771505384782,1,test,4,Pos,B,NULL
1771505970,883d757d76365eee621bfa2054d04c40,PennController,6,0,test_phase1,NULL,PennController,9,_Header_,End,1771505385039,1,test,4,Pos,B,NULL
1771505970,883d757d76365eee621bfa2054d04c40,PennController,6,0,test_phase1,NULL,Scale,R1B,Choice,Very Good,1771505399655,1,test,4,Pos,B,NULL
1771505970,883d757d76365eee621bfa2054d04c40,PennController,6,0,test_phase1,NULL,Scale,R2,Choice,Definitely there is a correct answer,1771505401919,1,test,4,Pos,B,NULL
1771505970,883d757d76365eee621bfa2054d04c40,PennController,6,0,test_phase1,NULL,Scale,R3,Choice,Almost everyone would agree with me,1771505405171,1,test,4,Pos,B,NULL
1771505970,883d757d76365eee621bfa2054d04c40,PennController,6,0,test_phase1,NULL,Scale,R4,Choice,Very easy,1771505406900,1,test,4,Pos,B,NULL
1771505970,883d757d76365eee621bfa2054d04c40,PennController,6,0,test_phase1,NULL,PennController,9,_Trial_,End,1771505407920,1,test,4,Pos,B,NULL
1771505970,883d757d76365eee621bfa2054d04c40,PennController,5,0,test_phase1,NULL,PennController,8,_Trial_,Start,1771505407921,1,test,2,Pos,B,NULL
1771505970,883d757d76365eee621bfa2054d04c40,PennController,5,0,test_phase1,NULL,PennController,8,_Header_,Start,1771505407921,1,test,2,Pos,B,NULL
1771505970,883d757d76365eee621bfa2054d04c40,PennController,5,0,test_phase1,NULL,PennController,8,_Header_,End,1771505408182,1,test,2,Pos,B,NULL
1771505970,883d757d76365eee621bfa2054d04c40,PennController,5,0,test_phase1,NULL,Scale,R1B,Choice,Very Good,1771505420962,1,test,2,Pos,B,NULL
1771505970,883d757d76365eee621bfa2054d04c40,PennController,5,0,test_phase1,NULL,Scale,R2,Choice,Probably there is a correct answer,1771505422798,1,test,2,Pos,B,NULL
1771505970,883d757d76365eee621bfa2054d04c40,PennController,5,0,test_phase1,NULL,Scale,R3,Choice,Most of them would agree with me,1771505425349,1,test,2,Pos,B,NULL
1771505970,883d757d76365eee621bfa2054d04c40,PennController,5,0,test_phase1,NULL,Scale,R4,Choice,Very easy,1771505428029,1,test,2,Pos,B,NULL
1771505970,883d757d76365eee621bfa2054d04c40,PennController,5,0,test_phase1,NULL,PennController,8,_Trial_,End,1771505430074,1,test,2,Pos,B,NULL
1771505970,883d757d76365eee621bfa2054d04c40,PennController,13,0,test_phase1,NULL,PennController,16,_Trial_,Start,1771505430076,1,test,7,Neg,B,NULL
1771505970,883d757d76365eee621bfa2054d04c40,PennController,13,0,test_phase1,NULL,PennController,16,_Header_,Start,1771505430076,1,test,7,Neg,B,NULL
1771505970,883d757d76365eee621bfa2054d04c40,PennController,13,0,test_phase1,NULL,PennController,16,_Header_,End,1771505430334,1,test,7,Neg,B,NULL
1771505970,883d757d76365eee621bfa2054d04c40,PennController,13,0,test_phase1,NULL,Scale,R1B,Choice,Good,1771505442526,1,test,7,Neg,B,NULL
1771505970,883d757d76365eee621bfa2054d04c40,PennController,13,0,test_phase1,NULL,Scale,R2,Choice,Probably no correct answer,1771505454778,1,test,7,Neg,B,NULL
1771505970,883d757d76365eee621bfa2054d04c40,PennController,13,0,test_phase1,NULL,Scale,R3,Choice,Most of them would agree with me,1771505458694,1,test,7,Neg,B,NULL
1771505970,883d757d76365eee621bfa2054d04c40,PennController,13,0,test_phase1,NULL,Scale,R4,Choice,Somewhat easy,1771505460555,1,test,7,Neg,B,NULL
1771505970,883d757d76365eee621bfa2054d04c40,PennController,13,0,test_phase1,NULL,PennController,16,_Trial_,End,1771505461618,1,test,7,Neg,B,NULL
1771505970,883d757d76365eee621bfa2054d04c40,PennController,28,0,fillers,NULL,PennController,31,_Trial_,Start,1771505461620,1,filler,14,none,none,NULL
1771505970,883d757d76365eee621bfa2054d04c40,PennController,28,0,fillers,NULL,PennController,31,_Header_,Start,1771505461620,1,filler,14,none,none,NULL
1771505970,883d757d76365eee621bfa2054d04c40,PennController,28,0,fillers,NULL,PennController,31,_Header_,End,1771505461882,1,filler,14,none,none,NULL
1771505970,883d757d76365eee621bfa2054d04c40,PennController,28,0,fillers,NULL,Scale,R1B,Choice,Bad,1771505471795,1,filler,14,none,none,NULL
1771505970,883d757d76365eee621bfa2054d04c40,PennController,28,0,fillers,NULL,Scale,R2,Choice,Probably there is a correct answer,1771505480905,1,filler,14,none,none,NULL
1771505970,883d757d76365eee621bfa2054d04c40,PennController,28,0,fillers,NULL,Scale,R3,Choice,Most of them would agree with me,1771505484484,1,filler,14,none,none,NULL
1771505970,883d757d76365eee621bfa2054d04c40,PennController,28,0,fillers,NULL,Scale,R4,Choice,A little easy,1771505489222,1,filler,14,none,none,NULL
1771505970,883d757d76365eee621bfa2054d04c40,PennController,28,0,fillers,NULL,PennController,31,_Trial_,End,1771505490464,1,filler,14,none,none,NULL
1771505970,883d757d76365eee621bfa2054d04c40,PennController,19,0,fillers,NULL,PennController,22,_Trial_,Start,1771505490465,1,filler,5,none,none,NULL
1771505970,883d757d76365eee621bfa2054d04c40,PennController,19,0,fillers,NULL,PennController,22,_Header_,Start,1771505490465,1,filler,5,none,none,NULL
1771505970,883d757d76365eee621bfa2054d04c40,PennController,19,0,fillers,NULL,PennController,22,_Header_,End,1771505490717,1,filler,5,none,none,NULL
1771505970,883d757d76365eee621bfa2054d04c40,PennController,19,0,fillers,NULL,Scale,R1B,Choice,Bad,1771505495856,1,filler,5,none,none,NULL
1771505970,883d757d76365eee621bfa2054d04c40,PennController,19,0,fillers,NULL,Scale,R2,Choice,Definitely there is a correct answer,1771505501270,1,filler,5,none,none,NULL
1771505970,883d757d76365eee621bfa2054d04c40,PennController,19,0,fillers,NULL,Scale,R3,Choice,Almost everyone would agree with me,1771505502877,1,filler,5,none,none,NULL
1771505970,883d757d76365eee621bfa2054d04c40,PennController,19,0,fillers,NULL,Scale,R4,Choice,Very easy,1771505505390,1,filler,5,none,none,NULL
1771505970,883d757d76365eee621bfa2054d04c40,PennController,19,0,fillers,NULL,PennController,22,_Trial_,End,1771505506539,1,filler,5,none,none,NULL
1771505970,883d757d76365eee621bfa2054d04c40,PennController,21,0,fillers,NULL,PennController,24,_Trial_,Start,1771505506540,1,filler,7,none,none,NULL
1771505970,883d757d76365eee621bfa2054d04c40,PennController,21,0,fillers,NULL,PennController,24,_Header_,Start,1771505506540,1,filler,7,none,none,NULL
1771505970,883d757d76365eee621bfa2054d04c40,PennController,21,0,fillers,NULL,PennController,24,_Header_,End,1771505506799,1,filler,7,none,none,NULL
1771505970,883d757d76365eee621bfa2054d04c40,PennController,21,0,fillers,NULL,Scale,R1B,Choice,Bad,1771505516266,1,filler,7,none,none,NULL
1771505970,883d757d76365eee621bfa2054d04c40,PennController,21,0,fillers,NULL,Scale,R2,Choice,Definitely there is a correct answer,1771505518026,1,filler,7,none,none,NULL
1771505970,883d757d76365eee621bfa2054d04c40,PennController,21,0,fillers,NULL,Scale,R3,Choice,Almost everyone would agree with me,1771505520140,1,filler,7,none,none,NULL
1771505970,883d757d76365eee621bfa2054d04c40,PennController,21,0,fillers,NULL,Scale,R4,Choice,Very easy,1771505521195,1,filler,7,none,none,NULL
1771505970,883d757d76365eee621bfa2054d04c40,PennController,21,0,fillers,NULL,PennController,24,_Trial_,End,1771505522671,1,filler,7,none,none,NULL
1771505970,883d757d76365eee621bfa2054d04c40,PennController,26,0,fillers,NULL,PennController,29,_Trial_,Start,1771505522673,1,filler,12,none,none,NULL
1771505970,883d757d76365eee621bfa2054d04c40,PennController,26,0,fillers,NULL,PennController,29,_Header_,Start,1771505522673,1,filler,12,none,none,NULL
1771505970,883d757d76365eee621bfa2054d04c40,PennController,26,0,fillers,NULL,PennController,29,_Header_,End,1771505522926,1,filler,12,none,none,NULL
1771505970,883d757d76365eee621bfa2054d04c40,PennController,26,0,fillers,NULL,Scale,R1B,Choice,Somewhat bad,1771505540562,1,filler,12,none,none,NULL
1771505970,883d757d76365eee621bfa2054d04c40,PennController,26,0,fillers,NULL,Scale,R2,Choice,Maybe no correct answer,1771505543521,1,filler,12,none,none,NULL
1771505970,883d757d76365eee621bfa2054d04c40,PennController,26,0,fillers,NULL,Scale,R3,Choice,Most of them would agree with me,1771505550080,1,filler,12,none,none,NULL
1771505970,883d757d76365eee621bfa2054d04c40,PennController,26,0,fillers,NULL,Scale,R4,Choice,A little difficult,1771505553477,1,filler,12,none,none,NULL
1771505970,883d757d76365eee621bfa2054d04c40,PennController,26,0,fillers,NULL,PennController,29,_Trial_,End,1771505554563,1,filler,12,none,none,NULL
1771505970,883d757d76365eee621bfa2054d04c40,PennController,20,0,fillers,NULL,PennController,23,_Trial_,Start,1771505554565,1,filler,6,none,none,NULL
1771505970,883d757d76365eee621bfa2054d04c40,PennController,20,0,fillers,NULL,PennController,23,_Header_,Start,1771505554565,1,filler,6,none,none,NULL
1771505970,883d757d76365eee621bfa2054d04c40,PennController,20,0,fillers,NULL,PennController,23,_Header_,End,1771505554816,1,filler,6,none,none,NULL
1771505970,883d757d76365eee621bfa2054d04c40,PennController,20,0,fillers,NULL,Scale,R1B,Choice,Somewhat bad,1771505563308,1,filler,6,none,none,NULL
1771505970,883d757d76365eee621bfa2054d04c40,PennController,20,0,fillers,NULL,Scale,R2,Choice,Probably there is a correct answer,1771505565343,1,filler,6,none,none,NULL
1771505970,883d757d76365eee621bfa2054d04c40,PennController,20,0,fillers,NULL,Scale,R3,Choice,Most of them would agree with me,1771505567111,1,filler,6,none,none,NULL
1771505970,883d757d76365eee621bfa2054d04c40,PennController,20,0,fillers,NULL,Scale,R4,Choice,Somewhat easy,1771505568500,1,filler,6,none,none,NULL
1771505970,883d757d76365eee621bfa2054d04c40,PennController,20,0,fillers,NULL,PennController,23,_Trial_,End,1771505569521,1,filler,6,none,none,NULL
1771505970,883d757d76365eee621bfa2054d04c40,PennController,15,0,fillers,NULL,PennController,18,_Trial_,Start,1771505569522,1,filler,1,none,none,NULL
1771505970,883d757d76365eee621bfa2054d04c40,PennController,15,0,fillers,NULL,PennController,18,_Header_,Start,1771505569522,1,filler,1,none,none,NULL
1771505970,883d757d76365eee621bfa2054d04c40,PennController,15,0,fillers,NULL,PennController,18,_Header_,End,1771505569778,1,filler,1,none,none,NULL
1771505970,883d757d76365eee621bfa2054d04c40,PennController,15,0,fillers,NULL,Scale,R1B,Choice,Somewhat bad,1771505580398,1,filler,1,none,none,NULL
1771505970,883d757d76365eee621bfa2054d04c40,PennController,15,0,fillers,NULL,Scale,R2,Choice,Maybe no correct answer,1771505582530,1,filler,1,none,none,NULL
1771505970,883d757d76365eee621bfa2054d04c40,PennController,15,0,fillers,NULL,Scale,R3,Choice,Some of them would agree with me,1771505585034,1,filler,1,none,none,NULL
1771505970,883d757d76365eee621bfa2054d04c40,PennController,15,0,fillers,NULL,Scale,R4,Choice,A little difficult,1771505587115,1,filler,1,none,none,NULL
1771505970,883d757d76365eee621bfa2054d04c40,PennController,15,0,fillers,NULL,PennController,18,_Trial_,End,1771505588211,1,filler,1,none,none,NULL
1771505970,883d757d76365eee621bfa2054d04c40,PennController,23,0,fillers,NULL,PennController,26,_Trial_,Start,1771505588213,1,filler,9,none,none,NULL
1771505970,883d757d76365eee621bfa2054d04c40,PennController,23,0,fillers,NULL,PennController,26,_Header_,Start,1771505588213,1,filler,9,none,none,NULL
1771505970,883d757d76365eee621bfa2054d04c40,PennController,23,0,fillers,NULL,PennController,26,_Header_,End,1771505588468,1,filler,9,none,none,NULL
1771505970,883d757d76365eee621bfa2054d04c40,PennController,23,0,fillers,NULL,Scale,R1B,Choice,Somewhat bad,1771505604655,1,filler,9,none,none,NULL
1771505970,883d757d76365eee621bfa2054d04c40,PennController,23,0,fillers,NULL,Scale,R2,Choice,Probably no correct answer,1771505606690,1,filler,9,none,none,NULL
1771505970,883d757d76365eee621bfa2054d04c40,PennController,23,0,fillers,NULL,Scale,R3,Choice,Some of them would disagree with me,1771505610962,1,filler,9,none,none,NULL
1771505970,883d757d76365eee621bfa2054d04c40,PennController,23,0,fillers,NULL,Scale,R4,Choice,A little difficult,1771505612605,1,filler,9,none,none,NULL
1771505970,883d757d76365eee621bfa2054d04c40,PennController,23,0,fillers,NULL,PennController,26,_Trial_,End,1771505613569,1,filler,9,none,none,NULL
1771505970,883d757d76365eee621bfa2054d04c40,PennController,24,0,fillers,NULL,PennController,27,_Trial_,Start,1771505613571,1,filler,10,none,none,NULL
1771505970,883d757d76365eee621bfa2054d04c40,PennController,24,0,fillers,NULL,PennController,27,_Header_,Start,1771505613571,1,filler,10,none,none,NULL
1771505970,883d757d76365eee621bfa2054d04c40,PennController,24,0,fillers,NULL,PennController,27,_Header_,End,1771505613825,1,filler,10,none,none,NULL
1771505970,883d757d76365eee621bfa2054d04c40,PennController,24,0,fillers,NULL,Scale,R1B,Choice,Somewhat bad,1771505630216,1,filler,10,none,none,NULL
1771505970,883d757d76365eee621bfa2054d04c40,PennController,24,0,fillers,NULL,Scale,R2,Choice,Maybe no correct answer,1771505632037,1,filler,10,none,none,NULL
1771505970,883d757d76365eee621bfa2054d04c40,PennController,24,0,fillers,NULL,Scale,R3,Choice,Some of them would disagree with me,1771505635640,1,filler,10,none,none,NULL
1771505970,883d757d76365eee621bfa2054d04c40,PennController,24,0,fillers,NULL,Scale,R4,Choice,A little difficult,1771505637319,1,filler,10,none,none,NULL
1771505970,883d757d76365eee621bfa2054d04c40,PennController,24,0,fillers,NULL,PennController,27,_Trial_,End,1771505638660,1,filler,10,none,none,NULL
1771505970,883d757d76365eee621bfa2054d04c40,PennController,16,0,fillers,NULL,PennController,19,_Trial_,Start,1771505638661,1,filler,2,none,none,NULL
1771505970,883d757d76365eee621bfa2054d04c40,PennController,16,0,fillers,NULL,PennController,19,_Header_,Start,1771505638661,1,filler,2,none,none,NULL
1771505970,883d757d76365eee621bfa2054d04c40,PennController,16,0,fillers,NULL,PennController,19,_Header_,End,1771505638914,1,filler,2,none,none,NULL
1771505970,883d757d76365eee621bfa2054d04c40,PennController,16,0,fillers,NULL,Scale,R1B,Choice,Somewhat wrong,1771505645873,1,filler,2,none,none,NULL
1771505970,883d757d76365eee621bfa2054d04c40,PennController,16,0,fillers,NULL,Scale,R2,Choice,Definitely there is a correct answer,1771505649803,1,filler,2,none,none,NULL
1771505970,883d757d76365eee621bfa2054d04c40,PennController,16,0,fillers,NULL,Scale,R3,Choice,Most of them would agree with me,1771505651144,1,filler,2,none,none,NULL
1771505970,883d757d76365eee621bfa2054d04c40,PennController,16,0,fillers,NULL,Scale,R4,Choice,Somewhat easy,1771505652579,1,filler,2,none,none,NULL
1771505970,883d757d76365eee621bfa2054d04c40,PennController,16,0,fillers,NULL,PennController,19,_Trial_,End,1771505653584,1,filler,2,none,none,NULL
1771505970,883d757d76365eee621bfa2054d04c40,PennController,22,0,fillers,NULL,PennController,25,_Trial_,Start,1771505653586,1,filler,8,none,none,NULL
1771505970,883d757d76365eee621bfa2054d04c40,PennController,22,0,fillers,NULL,PennController,25,_Header_,Start,1771505653586,1,filler,8,none,none,NULL
1771505970,883d757d76365eee621bfa2054d04c40,PennController,22,0,fillers,NULL,PennController,25,_Header_,End,1771505653838,1,filler,8,none,none,NULL
1771505970,883d757d76365eee621bfa2054d04c40,PennController,22,0,fillers,NULL,Scale,R1B,Choice,Somewhat bad,1771505660359,1,filler,8,none,none,NULL
1771505970,883d757d76365eee621bfa2054d04c40,PennController,22,0,fillers,NULL,Scale,R2,Choice,Definitely there is a correct answer,1771505662263,1,filler,8,none,none,NULL
1771505970,883d757d76365eee621bfa2054d04c40,PennController,22,0,fillers,NULL,Scale,R3,Choice,Most of them would agree with me,1771505663417,1,filler,8,none,none,NULL
1771505970,883d757d76365eee621bfa2054d04c40,PennController,22,0,fillers,NULL,Scale,R4,Choice,Somewhat easy,1771505665325,1,filler,8,none,none,NULL
1771505970,883d757d76365eee621bfa2054d04c40,PennController,22,0,fillers,NULL,PennController,25,_Trial_,End,1771505666559,1,filler,8,none,none,NULL
1771505970,883d757d76365eee621bfa2054d04c40,PennController,18,0,fillers,NULL,PennController,21,_Trial_,Start,1771505666560,1,filler,4,none,none,NULL
1771505970,883d757d76365eee621bfa2054d04c40,PennController,18,0,fillers,NULL,PennController,21,_Header_,Start,1771505666560,1,filler,4,none,none,NULL
1771505970,883d757d76365eee621bfa2054d04c40,PennController,18,0,fillers,NULL,PennController,21,_Header_,End,1771505666817,1,filler,4,none,none,NULL
1771505970,883d757d76365eee621bfa2054d04c40,PennController,18,0,fillers,NULL,Scale,R1B,Choice,Good,1771505674664,1,filler,4,none,none,NULL
1771505970,883d757d76365eee621bfa2054d04c40,PennController,18,0,fillers,NULL,Scale,R2,Choice,Definitely there is a correct answer,1771505690478,1,filler,4,none,none,NULL
1771505970,883d757d76365eee621bfa2054d04c40,PennController,18,0,fillers,NULL,Scale,R3,Choice,Most of them would agree with me,1771505692772,1,filler,4,none,none,NULL
1771505970,883d757d76365eee621bfa2054d04c40,PennController,18,0,fillers,NULL,Scale,R4,Choice,Very easy,1771505693986,1,filler,4,none,none,NULL
1771505970,883d757d76365eee621bfa2054d04c40,PennController,18,0,fillers,NULL,PennController,21,_Trial_,End,1771505694976,1,filler,4,none,none,NULL
1771505970,883d757d76365eee621bfa2054d04c40,PennController,17,0,fillers,NULL,PennController,20,_Trial_,Start,1771505694977,1,filler,3,none,none,NULL
1771505970,883d757d76365eee621bfa2054d04c40,PennController,17,0,fillers,NULL,PennController,20,_Header_,Start,1771505694979,1,filler,3,none,none,NULL
1771505970,883d757d76365eee621bfa2054d04c40,PennController,17,0,fillers,NULL,PennController,20,_Header_,End,1771505695238,1,filler,3,none,none,NULL
1771505970,883d757d76365eee621bfa2054d04c40,PennController,17,0,fillers,NULL,Scale,R2,Choice,Definitely there is a correct answer,1771505705577,1,filler,3,none,none,NULL
1771505970,883d757d76365eee621bfa2054d04c40,PennController,17,0,fillers,NULL,Scale,R1B,Choice,Very bad,1771505707763,1,filler,3,none,none,NULL
1771505970,883d757d76365eee621bfa2054d04c40,PennController,17,0,fillers,NULL,Scale,R3,Choice,Almost everyone would agree with me,1771505710087,1,filler,3,none,none,NULL
1771505970,883d757d76365eee621bfa2054d04c40,PennController,17,0,fillers,NULL,Scale,R4,Choice,Very easy,1771505711650,1,filler,3,none,none,NULL
1771505970,883d757d76365eee621bfa2054d04c40,PennController,17,0,fillers,NULL,PennController,20,_Trial_,End,1771505712861,1,filler,3,none,none,NULL
1771505970,883d757d76365eee621bfa2054d04c40,PennController,27,0,fillers,NULL,PennController,30,_Trial_,Start,1771505712863,1,filler,13,none,none,NULL
1771505970,883d757d76365eee621bfa2054d04c40,PennController,27,0,fillers,NULL,PennController,30,_Header_,Start,1771505712863,1,filler,13,none,none,NULL
1771505970,883d757d76365eee621bfa2054d04c40,PennController,27,0,fillers,NULL,PennController,30,_Header_,End,1771505713115,1,filler,13,none,none,NULL
1771505970,883d757d76365eee621bfa2054d04c40,PennController,27,0,fillers,NULL,Scale,R1B,Choice,Somewhat bad,1771505729575,1,filler,13,none,none,NULL
1771505970,883d757d76365eee621bfa2054d04c40,PennController,27,0,fillers,NULL,Scale,R2,Choice,Maybe no correct answer,1771505731772,1,filler,13,none,none,NULL
1771505970,883d757d76365eee621bfa2054d04c40,PennController,27,0,fillers,NULL,Scale,R3,Choice,Some of them would disagree with me,1771505735461,1,filler,13,none,none,NULL
1771505970,883d757d76365eee621bfa2054d04c40,PennController,27,0,fillers,NULL,Scale,R4,Choice,A little difficult,1771505736947,1,filler,13,none,none,NULL
1771505970,883d757d76365eee621bfa2054d04c40,PennController,27,0,fillers,NULL,PennController,30,_Trial_,End,1771505738065,1,filler,13,none,none,NULL
1771505970,883d757d76365eee621bfa2054d04c40,PennController,25,0,fillers,NULL,PennController,28,_Trial_,Start,1771505738067,1,filler,11,none,none,NULL
1771505970,883d757d76365eee621bfa2054d04c40,PennController,25,0,fillers,NULL,PennController,28,_Header_,Start,1771505738067,1,filler,11,none,none,NULL
1771505970,883d757d76365eee621bfa2054d04c40,PennController,25,0,fillers,NULL,PennController,28,_Header_,End,1771505738323,1,filler,11,none,none,NULL
1771505970,883d757d76365eee621bfa2054d04c40,PennController,25,0,fillers,NULL,Scale,R1B,Choice,Bad,1771505747836,1,filler,11,none,none,NULL
1771505970,883d757d76365eee621bfa2054d04c40,PennController,25,0,fillers,NULL,Scale,R2,Choice,Probably there is a correct answer,1771505750975,1,filler,11,none,none,NULL
1771505970,883d757d76365eee621bfa2054d04c40,PennController,25,0,fillers,NULL,Scale,R3,Choice,Almost everyone would agree with me,1771505752667,1,filler,11,none,none,NULL
1771505970,883d757d76365eee621bfa2054d04c40,PennController,25,0,fillers,NULL,Scale,R4,Choice,Very easy,1771505754054,1,filler,11,none,none,NULL
1771505970,883d757d76365eee621bfa2054d04c40,PennController,25,0,fillers,NULL,PennController,28,_Trial_,End,1771505755105,1,filler,11,none,none,NULL
# 13. Comments.
1771505970,883d757d76365eee621bfa2054d04c40,PennController,42,0,instructions2,NULL,PennController,5,_Trial_,Start,1771505755107,NULL
1771505970,883d757d76365eee621bfa2054d04c40,PennController,42,0,instructions2,NULL,PennController,5,_Header_,Start,1771505755107,NULL
1771505970,883d757d76365eee621bfa2054d04c40,PennController,42,0,instructions2,NULL,PennController,5,_Header_,End,1771505755357,NULL
1771505970,883d757d76365eee621bfa2054d04c40,PennController,42,0,instructions2,NULL,PennController,5,_Trial_,End,1771505760984,NULL
# 13. Phase.
# 14. TrialType.
# 15. Number.
# 16. Valence.
# 17. Group.
# 18. Comments.
1771505970,883d757d76365eee621bfa2054d04c40,PennController,30,0,test_phase2,NULL,PennController,33,_Trial_,Start,1771505760986,2,test,4,Pos,B,NULL
1771505970,883d757d76365eee621bfa2054d04c40,PennController,30,0,test_phase2,NULL,PennController,33,_Header_,Start,1771505760986,2,test,4,Pos,B,NULL
1771505970,883d757d76365eee621bfa2054d04c40,PennController,30,0,test_phase2,NULL,PennController,33,_Header_,End,1771505761243,2,test,4,Pos,B,NULL
1771505970,883d757d76365eee621bfa2054d04c40,PennController,30,0,test_phase2,NULL,Scale,R5,Choice,The other person is clearly mistaken,1771505772522,2,test,4,Pos,B,NULL
1771505970,883d757d76365eee621bfa2054d04c40,PennController,30,0,test_phase2,NULL,Scale,R6,Choice,Very comfortable,1771505780331,2,test,4,Pos,B,NULL
1771505970,883d757d76365eee621bfa2054d04c40,PennController,30,0,test_phase2,NULL,PennController,33,_Trial_,End,1771505788438,2,test,4,Pos,B,NULL
1771505970,883d757d76365eee621bfa2054d04c40,PennController,33,0,test_phase2,NULL,PennController,36,_Trial_,Start,1771505788439,2,test,10,Pos,B,NULL
1771505970,883d757d76365eee621bfa2054d04c40,PennController,33,0,test_phase2,NULL,PennController,36,_Header_,Start,1771505788439,2,test,10,Pos,B,NULL
1771505970,883d757d76365eee621bfa2054d04c40,PennController,33,0,test_phase2,NULL,PennController,36,_Header_,End,1771505788695,2,test,10,Pos,B,NULL
1771505970,883d757d76365eee621bfa2054d04c40,PennController,33,0,test_phase2,NULL,Scale,R5,Choice,Maybe neither of us needs to be mistaken,1771505806764,2,test,10,Pos,B,NULL
1771505970,883d757d76365eee621bfa2054d04c40,PennController,33,0,test_phase2,NULL,Scale,R6,Choice,Very comfortable,1771505810764,2,test,10,Pos,B,NULL
1771505970,883d757d76365eee621bfa2054d04c40,PennController,33,0,test_phase2,NULL,PennController,36,_Trial_,End,1771505812303,2,test,10,Pos,B,NULL
1771505970,883d757d76365eee621bfa2054d04c40,PennController,38,0,test_phase2,NULL,PennController,41,_Trial_,Start,1771505812305,2,test,9,Neg,B,NULL
1771505970,883d757d76365eee621bfa2054d04c40,PennController,38,0,test_phase2,NULL,PennController,41,_Header_,Start,1771505812305,2,test,9,Neg,B,NULL
1771505970,883d757d76365eee621bfa2054d04c40,PennController,38,0,test_phase2,NULL,PennController,41,_Header_,End,1771505812560,2,test,9,Neg,B,NULL
1771505970,883d757d76365eee621bfa2054d04c40,PennController,38,0,test_phase2,NULL,Scale,R5,Choice,The other person is clearly mistaken,1771505824878,2,test,9,Neg,B,NULL
1771505970,883d757d76365eee621bfa2054d04c40,PennController,38,0,test_phase2,NULL,Scale,R6,Choice,Mildly uncomfortable,1771505828058,2,test,9,Neg,B,NULL
1771505970,883d757d76365eee621bfa2054d04c40,PennController,38,0,test_phase2,NULL,PennController,41,_Trial_,End,1771505833279,2,test,9,Neg,B,NULL
1771505970,883d757d76365eee621bfa2054d04c40,PennController,34,0,test_phase2,NULL,PennController,37,_Trial_,Start,1771505833280,2,test,1,Neg,B,NULL
1771505970,883d757d76365eee621bfa2054d04c40,PennController,34,0,test_phase2,NULL,PennController,37,_Header_,Start,1771505833280,2,test,1,Neg,B,NULL
1771505970,883d757d76365eee621bfa2054d04c40,PennController,34,0,test_phase2,NULL,PennController,37,_Header_,End,1771505833537,2,test,1,Neg,B,NULL
1771505970,883d757d76365eee621bfa2054d04c40,PennController,34,0,test_phase2,NULL,Scale,R5,Choice,The other person is clearly mistaken,1771505839800,2,test,1,Neg,B,NULL
1771505970,883d757d76365eee621bfa2054d04c40,PennController,34,0,test_phase2,NULL,Scale,R6,Choice,Mildly uncomfortable,1771505842030,2,test,1,Neg,B,NULL
1771505970,883d757d76365eee621bfa2054d04c40,PennController,34,0,test_phase2,NULL,PennController,37,_Trial_,End,1771505843659,2,test,1,Neg,B,NULL
1771505970,883d757d76365eee621bfa2054d04c40,PennController,32,0,test_phase2,NULL,PennController,35,_Trial_,Start,1771505843662,2,test,8,Pos,B,NULL
1771505970,883d757d76365eee621bfa2054d04c40,PennController,32,0,test_phase2,NULL,PennController,35,_Header_,Start,1771505843662,2,test,8,Pos,B,NULL
1771505970,883d757d76365eee621bfa2054d04c40,PennController,32,0,test_phase2,NULL,PennController,35,_Header_,End,1771505843914,2,test,8,Pos,B,NULL
1771505970,883d757d76365eee621bfa2054d04c40,PennController,32,0,test_phase2,NULL,Scale,R5,Choice,Neither of us needs to be mistaken,1771505854616,2,test,8,Pos,B,NULL
1771505970,883d757d76365eee621bfa2054d04c40,PennController,32,0,test_phase2,NULL,Scale,R6,Choice,Very comfortable,1771505857750,2,test,8,Pos,B,NULL
1771505970,883d757d76365eee621bfa2054d04c40,PennController,32,0,test_phase2,NULL,PennController,35,_Trial_,End,1771505859639,2,test,8,Pos,B,NULL
1771505970,883d757d76365eee621bfa2054d04c40,PennController,31,0,test_phase2,NULL,PennController,34,_Trial_,Start,1771505859641,2,test,6,Pos,B,NULL
1771505970,883d757d76365eee621bfa2054d04c40,PennController,31,0,test_phase2,NULL,PennController,34,_Header_,Start,1771505859641,2,test,6,Pos,B,NULL
1771505970,883d757d76365eee621bfa2054d04c40,PennController,31,0,test_phase2,NULL,PennController,34,_Header_,End,1771505859895,2,test,6,Pos,B,NULL
1771505970,883d757d76365eee621bfa2054d04c40,PennController,31,0,test_phase2,NULL,Scale,R5,Choice,Maybe neither of us needs to be mistaken,1771505868770,2,test,6,Pos,B,NULL
1771505970,883d757d76365eee621bfa2054d04c40,PennController,31,0,test_phase2,NULL,Scale,R6,Choice,Very comfortable,1771505870503,2,test,6,Pos,B,NULL
1771505970,883d757d76365eee621bfa2054d04c40,PennController,31,0,test_phase2,NULL,PennController,34,_Trial_,End,1771505871971,2,test,6,Pos,B,NULL
1771505970,883d757d76365eee621bfa2054d04c40,PennController,29,0,test_phase2,NULL,PennController,32,_Trial_,Start,1771505871972,2,test,2,Pos,B,NULL
1771505970,883d757d76365eee621bfa2054d04c40,PennController,29,0,test_phase2,NULL,PennController,32,_Header_,Start,1771505871972,2,test,2,Pos,B,NULL
1771505970,883d757d76365eee621bfa2054d04c40,PennController,29,0,test_phase2,NULL,PennController,32,_Header_,End,1771505872230,2,test,2,Pos,B,NULL
1771505970,883d757d76365eee621bfa2054d04c40,PennController,29,0,test_phase2,NULL,Scale,R5,Choice,Maybe neither of us needs to be mistaken,1771505877458,2,test,2,Pos,B,NULL
1771505970,883d757d76365eee621bfa2054d04c40,PennController,29,0,test_phase2,NULL,Scale,R6,Choice,Very comfortable,1771505880105,2,test,2,Pos,B,NULL
1771505970,883d757d76365eee621bfa2054d04c40,PennController,29,0,test_phase2,NULL,PennController,32,_Trial_,End,1771505881051,2,test,2,Pos,B,NULL
1771505970,883d757d76365eee621bfa2054d04c40,PennController,35,0,test_phase2,NULL,PennController,38,_Trial_,Start,1771505881053,2,test,3,Neg,B,NULL
1771505970,883d757d76365eee621bfa2054d04c40,PennController,35,0,test_phase2,NULL,PennController,38,_Header_,Start,1771505881053,2,test,3,Neg,B,NULL
1771505970,883d757d76365eee621bfa2054d04c40,PennController,35,0,test_phase2,NULL,PennController,38,_Header_,End,1771505881304,2,test,3,Neg,B,NULL
1771505970,883d757d76365eee621bfa2054d04c40,PennController,35,0,test_phase2,NULL,Scale,R5,Choice,The other person is clearly mistaken,1771505890410,2,test,3,Neg,B,NULL
1771505970,883d757d76365eee621bfa2054d04c40,PennController,35,0,test_phase2,NULL,Scale,R6,Choice,Mildly comfortable,1771505894148,2,test,3,Neg,B,NULL
1771505970,883d757d76365eee621bfa2054d04c40,PennController,35,0,test_phase2,NULL,PennController,38,_Trial_,End,1771505895564,2,test,3,Neg,B,NULL
1771505970,883d757d76365eee621bfa2054d04c40,PennController,37,0,test_phase2,NULL,PennController,40,_Trial_,Start,1771505895566,2,test,7,Neg,B,NULL
1771505970,883d757d76365eee621bfa2054d04c40,PennController,37,0,test_phase2,NULL,PennController,40,_Header_,Start,1771505895566,2,test,7,Neg,B,NULL
1771505970,883d757d76365eee621bfa2054d04c40,PennController,37,0,test_phase2,NULL,PennController,40,_Header_,End,1771505895822,2,test,7,Neg,B,NULL
1771505970,883d757d76365eee621bfa2054d04c40,PennController,37,0,test_phase2,NULL,Scale,R5,Choice,Maybe neither of us needs to be mistaken,1771505902628,2,test,7,Neg,B,NULL
1771505970,883d757d76365eee621bfa2054d04c40,PennController,37,0,test_phase2,NULL,Scale,R6,Choice,Very comfortable,1771505904532,2,test,7,Neg,B,NULL
1771505970,883d757d76365eee621bfa2054d04c40,PennController,37,0,test_phase2,NULL,PennController,40,_Trial_,End,1771505907821,2,test,7,Neg,B,NULL
1771505970,883d757d76365eee621bfa2054d04c40,PennController,36,0,test_phase2,NULL,PennController,39,_Trial_,Start,1771505907823,2,test,5,Neg,B,NULL
1771505970,883d757d76365eee621bfa2054d04c40,PennController,36,0,test_phase2,NULL,PennController,39,_Header_,Start,1771505907823,2,test,5,Neg,B,NULL
1771505970,883d757d76365eee621bfa2054d04c40,PennController,36,0,test_phase2,NULL,PennController,39,_Header_,End,1771505908076,2,test,5,Neg,B,NULL
1771505970,883d757d76365eee621bfa2054d04c40,PennController,36,0,test_phase2,NULL,Scale,R5,Choice,The other person is maybe mistaken,1771505922825,2,test,5,Neg,B,NULL
1771505970,883d757d76365eee621bfa2054d04c40,PennController,36,0,test_phase2,NULL,Scale,R6,Choice,Very comfortable,1771505924347,2,test,5,Neg,B,NULL
1771505970,883d757d76365eee621bfa2054d04c40,PennController,36,0,test_phase2,NULL,PennController,39,_Trial_,End,1771505925404,2,test,5,Neg,B,NULL
# 13. Comments.
1771505970,883d757d76365eee621bfa2054d04c40,PennController,40,0,demo,NULL,PennController,3,_Trial_,Start,1771505925406,NULL
1771505970,883d757d76365eee621bfa2054d04c40,PennController,40,0,demo,NULL,PennController,3,_Header_,Start,1771505925406,NULL
1771505970,883d757d76365eee621bfa2054d04c40,PennController,40,0,demo,NULL,PennController,3,_Header_,End,1771505925658,NULL
1771505970,883d757d76365eee621bfa2054d04c40,PennController,40,0,demo,NULL,Html,bg_form,country,US,1771505971715,text input
1771505970,883d757d76365eee621bfa2054d04c40,PennController,40,0,demo,NULL,Html,bg_form,lang1,English,1771505971715,text input
1771505970,883d757d76365eee621bfa2054d04c40,PennController,40,0,demo,NULL,Html,bg_form,lang2,,1771505971715,text input
1771505970,883d757d76365eee621bfa2054d04c40,PennController,40,0,demo,NULL,Html,bg_form,lang3,,1771505971715,text input
1771505970,883d757d76365eee621bfa2054d04c40,PennController,40,0,demo,NULL,Html,bg_form,moral_reason,checked,1771505971716,checkbox
1771505970,883d757d76365eee621bfa2054d04c40,PennController,40,0,demo,NULL,Html,bg_form,moral_reason,checked,1771505971716,checkbox
1771505970,883d757d76365eee621bfa2054d04c40,PennController,40,0,demo,NULL,Html,bg_form,moral_reason,checked,1771505971716,checkbox
1771505970,883d757d76365eee621bfa2054d04c40,PennController,40,0,demo,NULL,Html,bg_form,moral_reason,unchecked,1771505971716,checkbox
1771505970,883d757d76365eee621bfa2054d04c40,PennController,40,0,demo,NULL,Html,bg_form,religion,unchecked,1771505971716,checkbox
1771505970,883d757d76365eee621bfa2054d04c40,PennController,40,0,demo,NULL,Html,bg_form,religion,unchecked,1771505971716,checkbox
1771505970,883d757d76365eee621bfa2054d04c40,PennController,40,0,demo,NULL,Html,bg_form,religion,unchecked,1771505971716,checkbox
1771505970,883d757d76365eee621bfa2054d04c40,PennController,40,0,demo,NULL,Html,bg_form,religion,unchecked,1771505971716,checkbox
1771505970,883d757d76365eee621bfa2054d04c40,PennController,40,0,demo,NULL,Html,bg_form,religion,unchecked,1771505971716,checkbox
1771505970,883d757d76365eee621bfa2054d04c40,PennController,40,0,demo,NULL,Html,bg_form,religion,unchecked,1771505971716,checkbox
1771505970,883d757d76365eee621bfa2054d04c40,PennController,40,0,demo,NULL,Html,bg_form,religion,unchecked,1771505971716,checkbox
1771505970,883d757d76365eee621bfa2054d04c40,PennController,40,0,demo,NULL,Html,bg_form,religion,checked,1771505971716,checkbox
1771505970,883d757d76365eee621bfa2054d04c40,PennController,40,0,demo,NULL,Html,bg_form,religion,unchecked,1771505971716,checkbox
1771505970,883d757d76365eee621bfa2054d04c40,PennController,40,0,demo,NULL,Html,bg_form,religion,unchecked,1771505971716,checkbox
1771505970,883d757d76365eee621bfa2054d04c40,PennController,40,0,demo,NULL,Html,bg_form,lang4,unchecked,1771505971716,checkbox
1771505970,883d757d76365eee621bfa2054d04c40,PennController,40,0,demo,NULL,Html,bg_form,rightwrong,yes,1771505971716,radio button
1771505970,883d757d76365eee621bfa2054d04c40,PennController,40,0,demo,NULL,Html,bg_form,gender,man,1771505971716,radio button
1771505970,883d757d76365eee621bfa2054d04c40,PennController,40,0,demo,NULL,PennController,3,_Trial_,End,1771505971717,NULL
#
# Results on Thu, 19 Feb 2026 12:59:39 GMT
# USER AGENT: Mozilla/5.0 (Windows NT 10.0; Win64; x64) AppleWebKit/537.36 (KHTML, like Gecko) Chrome/145.0.0.0 Safari/537.36 Edg/145.0.0.0
# Design number was non-random = 0
#
# Columns below this comment are as follows:
# 1. Results reception time.
# 2. MD5 hash of participant's IP address.
# 3. Controller name.
# 4. Order number of item.
# 5. Inner element number.
# 6. Label.
# 7. Latin Square Group.
# 8. PennElementType.
# 9. PennElementName.
# 10. Parameter.
# 11. Value.
# 12. EventTime.
# 13. Comments.
1771505979,7bc5e622ba9b35b726123fe5a4c04991,PennController,0,0,welcome,NULL,PennController,0,_Trial_,Start,1771505056760,NULL
1771505979,7bc5e622ba9b35b726123fe5a4c04991,PennController,0,0,welcome,NULL,PennController,0,_Header_,Start,1771505056760,NULL
1771505979,7bc5e622ba9b35b726123fe5a4c04991,PennController,0,0,welcome,NULL,PennController,0,_Header_,End,1771505057015,NULL
1771505979,7bc5e622ba9b35b726123fe5a4c04991,PennController,0,0,welcome,NULL,PennController,0,_Trial_,End,1771505059192,NULL
1771505979,7bc5e622ba9b35b726123fe5a4c04991,PennController,39,0,consent,NULL,PennController,2,_Trial_,Start,1771505059193,NULL
1771505979,7bc5e622ba9b35b726123fe5a4c04991,PennController,39,0,consent,NULL,PennController,2,_Header_,Start,1771505059193,NULL
1771505979,7bc5e622ba9b35b726123fe5a4c04991,PennController,39,0,consent,NULL,PennController,2,_Header_,End,1771505059445,NULL
1771505979,7bc5e622ba9b35b726123fe5a4c04991,PennController,39,0,consent,NULL,PennController,2,_Trial_,End,1771505065010,NULL
1771505979,7bc5e622ba9b35b726123fe5a4c04991,PennController,41,0,instructions1,NULL,PennController,4,_Trial_,Start,1771505065011,NULL
1771505979,7bc5e622ba9b35b726123fe5a4c04991,PennController,41,0,instructions1,NULL,PennController,4,_Header_,Start,1771505065011,NULL
1771505979,7bc5e622ba9b35b726123fe5a4c04991,PennController,41,0,instructions1,NULL,PennController,4,_Header_,End,1771505065266,NULL
1771505979,7bc5e622ba9b35b726123fe5a4c04991,PennController,41,0,instructions1,NULL,PennController,4,_Trial_,End,1771505066767,NULL
# 13. TrialType.
# 14. Number.
# 15. Valence.
# 16. Group.
# 17. Comments.
1771505979,7bc5e622ba9b35b726123fe5a4c04991,PennController,4,0,practice,NULL,PennController,7,_Trial_,Start,1771505066767,Practice,2,none,none,NULL
1771505979,7bc5e622ba9b35b726123fe5a4c04991,PennController,4,0,practice,NULL,PennController,7,_Header_,Start,1771505066767,Practice,2,none,none,NULL
1771505979,7bc5e622ba9b35b726123fe5a4c04991,PennController,4,0,practice,NULL,PennController,7,_Header_,End,1771505067020,Practice,2,none,none,NULL
1771505979,7bc5e622ba9b35b726123fe5a4c04991,PennController,4,0,practice,NULL,Scale,R1B,Choice,Somewhat wrong,1771505083355,Practice,2,none,none,NULL
1771505979,7bc5e622ba9b35b726123fe5a4c04991,PennController,4,0,practice,NULL,Scale,R2,Choice,Maybe there is a correct answer,1771505092029,Practice,2,none,none,NULL
1771505979,7bc5e622ba9b35b726123fe5a4c04991,PennController,4,0,practice,NULL,Scale,R3,Choice,Most of them would agree with me,1771505097259,Practice,2,none,none,NULL
1771505979,7bc5e622ba9b35b726123fe5a4c04991,PennController,4,0,practice,NULL,Scale,R4,Choice,Somewhat easy,1771505101685,Practice,2,none,none,NULL
1771505979,7bc5e622ba9b35b726123fe5a4c04991,PennController,4,0,practice,NULL,PennController,7,_Trial_,End,1771505104865,Practice,2,none,none,NULL
1771505979,7bc5e622ba9b35b726123fe5a4c04991,PennController,3,0,practice,NULL,PennController,6,_Trial_,Start,1771505104867,Practice,1,none,none,NULL
1771505979,7bc5e622ba9b35b726123fe5a4c04991,PennController,3,0,practice,NULL,PennController,6,_Header_,Start,1771505104867,Practice,1,none,none,NULL
1771505979,7bc5e622ba9b35b726123fe5a4c04991,PennController,3,0,practice,NULL,PennController,6,_Header_,End,1771505105120,Practice,1,none,none,NULL
1771505979,7bc5e622ba9b35b726123fe5a4c04991,PennController,3,0,practice,NULL,Scale,R1B,Choice,Good,1771505118307,Practice,1,none,none,NULL
1771505979,7bc5e622ba9b35b726123fe5a4c04991,PennController,3,0,practice,NULL,Scale,R2,Choice,Maybe no correct answer,1771505121233,Practice,1,none,none,NULL
1771505979,7bc5e622ba9b35b726123fe5a4c04991,PennController,3,0,practice,NULL,Scale,R3,Choice,Some of them would disagree with me,1771505126005,Practice,1,none,none,NULL
1771505979,7bc5e622ba9b35b726123fe5a4c04991,PennController,3,0,practice,NULL,Scale,R4,Choice,A little easy,1771505127927,Practice,1,none,none,NULL
1771505979,7bc5e622ba9b35b726123fe5a4c04991,PennController,3,0,practice,NULL,PennController,6,_Trial_,End,1771505128863,Practice,1,none,none,NULL
# 13. Phase.
# 14. TrialType.
# 15. Number.
# 16. Valence.
# 17. Group.
# 18. Comments.
1771505979,7bc5e622ba9b35b726123fe5a4c04991,PennController,10,0,test_phase1,NULL,PennController,13,_Trial_,Start,1771505128864,1,test,1,Neg,B,NULL
1771505979,7bc5e622ba9b35b726123fe5a4c04991,PennController,10,0,test_phase1,NULL,PennController,13,_Header_,Start,1771505128864,1,test,1,Neg,B,NULL
1771505979,7bc5e622ba9b35b726123fe5a4c04991,PennController,10,0,test_phase1,NULL,PennController,13,_Header_,End,1771505129118,1,test,1,Neg,B,NULL
1771505979,7bc5e622ba9b35b726123fe5a4c04991,PennController,10,0,test_phase1,NULL,Scale,R1B,Choice,Bad,1771505135516,1,test,1,Neg,B,NULL
1771505979,7bc5e622ba9b35b726123fe5a4c04991,PennController,10,0,test_phase1,NULL,Scale,R2,Choice,Definitely there is a correct answer,1771505137403,1,test,1,Neg,B,NULL
1771505979,7bc5e622ba9b35b726123fe5a4c04991,PennController,10,0,test_phase1,NULL,Scale,R3,Choice,Most of them would agree with me,1771505141271,1,test,1,Neg,B,NULL
1771505979,7bc5e622ba9b35b726123fe5a4c04991,PennController,10,0,test_phase1,NULL,Scale,R4,Choice,Very easy,1771505143850,1,test,1,Neg,B,NULL
1771505979,7bc5e622ba9b35b726123fe5a4c04991,PennController,10,0,test_phase1,NULL,PennController,13,_Trial_,End,1771505144967,1,test,1,Neg,B,NULL
1771505979,7bc5e622ba9b35b726123fe5a4c04991,PennController,9,0,test_phase1,NULL,PennController,12,_Trial_,Start,1771505144969,1,test,10,Pos,B,NULL
1771505979,7bc5e622ba9b35b726123fe5a4c04991,PennController,9,0,test_phase1,NULL,PennController,12,_Header_,Start,1771505144969,1,test,10,Pos,B,NULL
1771505979,7bc5e622ba9b35b726123fe5a4c04991,PennController,9,0,test_phase1,NULL,PennController,12,_Header_,End,1771505145219,1,test,10,Pos,B,NULL
1771505979,7bc5e622ba9b35b726123fe5a4c04991,PennController,9,0,test_phase1,NULL,Scale,R1B,Choice,Good,1771505171330,1,test,10,Pos,B,NULL
1771505979,7bc5e622ba9b35b726123fe5a4c04991,PennController,9,0,test_phase1,NULL,Scale,R2,Choice,Maybe no correct answer,1771505174035,1,test,10,Pos,B,NULL
1771505979,7bc5e622ba9b35b726123fe5a4c04991,PennController,9,0,test_phase1,NULL,Scale,R3,Choice,Some of them would agree with me,1771505175557,1,test,10,Pos,B,NULL
1771505979,7bc5e622ba9b35b726123fe5a4c04991,PennController,9,0,test_phase1,NULL,Scale,R4,Choice,Somewhat easy,1771505177854,1,test,10,Pos,B,NULL
1771505979,7bc5e622ba9b35b726123fe5a4c04991,PennController,9,0,test_phase1,NULL,PennController,12,_Trial_,End,1771505178837,1,test,10,Pos,B,NULL
1771505979,7bc5e622ba9b35b726123fe5a4c04991,PennController,14,0,test_phase1,NULL,PennController,17,_Trial_,Start,1771505178838,1,test,9,Neg,B,NULL
1771505979,7bc5e622ba9b35b726123fe5a4c04991,PennController,14,0,test_phase1,NULL,PennController,17,_Header_,Start,1771505178838,1,test,9,Neg,B,NULL
1771505979,7bc5e622ba9b35b726123fe5a4c04991,PennController,14,0,test_phase1,NULL,PennController,17,_Header_,End,1771505179092,1,test,9,Neg,B,NULL
1771505979,7bc5e622ba9b35b726123fe5a4c04991,PennController,14,0,test_phase1,NULL,Scale,R2,Choice,Probably there is a correct answer,1771505198165,1,test,9,Neg,B,NULL
1771505979,7bc5e622ba9b35b726123fe5a4c04991,PennController,14,0,test_phase1,NULL,Scale,R3,Choice,Some of them would agree with me,1771505202676,1,test,9,Neg,B,NULL
1771505979,7bc5e622ba9b35b726123fe5a4c04991,PennController,14,0,test_phase1,NULL,Scale,R4,Choice,Somewhat easy,1771505204066,1,test,9,Neg,B,NULL
1771505979,7bc5e622ba9b35b726123fe5a4c04991,PennController,14,0,test_phase1,NULL,Scale,R1B,Choice,Somewhat wrong,1771505213524,1,test,9,Neg,B,NULL
1771505979,7bc5e622ba9b35b726123fe5a4c04991,PennController,14,0,test_phase1,NULL,PennController,17,_Trial_,End,1771505216590,1,test,9,Neg,B,NULL
1771505979,7bc5e622ba9b35b726123fe5a4c04991,PennController,8,0,test_phase1,NULL,PennController,11,_Trial_,Start,1771505216591,1,test,8,Pos,B,NULL
1771505979,7bc5e622ba9b35b726123fe5a4c04991,PennController,8,0,test_phase1,NULL,PennController,11,_Header_,Start,1771505216591,1,test,8,Pos,B,NULL
1771505979,7bc5e622ba9b35b726123fe5a4c04991,PennController,8,0,test_phase1,NULL,PennController,11,_Header_,End,1771505216842,1,test,8,Pos,B,NULL
1771505979,7bc5e622ba9b35b726123fe5a4c04991,PennController,8,0,test_phase1,NULL,Scale,R1B,Choice,Very Good,1771505232074,1,test,8,Pos,B,NULL
1771505979,7bc5e622ba9b35b726123fe5a4c04991,PennController,8,0,test_phase1,NULL,Scale,R2,Choice,Probably there is a correct answer,1771505233914,1,test,8,Pos,B,NULL
1771505979,7bc5e622ba9b35b726123fe5a4c04991,PennController,8,0,test_phase1,NULL,Scale,R3,Choice,Some of them would agree with me,1771505237518,1,test,8,Pos,B,NULL
1771505979,7bc5e622ba9b35b726123fe5a4c04991,PennController,8,0,test_phase1,NULL,Scale,R4,Choice,Very easy,1771505238376,1,test,8,Pos,B,NULL
1771505979,7bc5e622ba9b35b726123fe5a4c04991,PennController,8,0,test_phase1,NULL,PennController,11,_Trial_,End,1771505244347,1,test,8,Pos,B,NULL
1771505979,7bc5e622ba9b35b726123fe5a4c04991,PennController,5,0,test_phase1,NULL,PennController,8,_Trial_,Start,1771505244348,1,test,2,Pos,B,NULL
1771505979,7bc5e622ba9b35b726123fe5a4c04991,PennController,5,0,test_phase1,NULL,PennController,8,_Header_,Start,1771505244348,1,test,2,Pos,B,NULL
1771505979,7bc5e622ba9b35b726123fe5a4c04991,PennController,5,0,test_phase1,NULL,PennController,8,_Header_,End,1771505244598,1,test,2,Pos,B,NULL
1771505979,7bc5e622ba9b35b726123fe5a4c04991,PennController,5,0,test_phase1,NULL,Scale,R1B,Choice,Very Good,1771505273885,1,test,2,Pos,B,NULL
1771505979,7bc5e622ba9b35b726123fe5a4c04991,PennController,5,0,test_phase1,NULL,Scale,R2,Choice,Definitely there is a correct answer,1771505279566,1,test,2,Pos,B,NULL
1771505979,7bc5e622ba9b35b726123fe5a4c04991,PennController,5,0,test_phase1,NULL,Scale,R3,Choice,Most of them would agree with me,1771505280700,1,test,2,Pos,B,NULL
1771505979,7bc5e622ba9b35b726123fe5a4c04991,PennController,5,0,test_phase1,NULL,Scale,R4,Choice,Very easy,1771505281503,1,test,2,Pos,B,NULL
1771505979,7bc5e622ba9b35b726123fe5a4c04991,PennController,5,0,test_phase1,NULL,PennController,8,_Trial_,End,1771505284373,1,test,2,Pos,B,NULL
1771505979,7bc5e622ba9b35b726123fe5a4c04991,PennController,6,0,test_phase1,NULL,PennController,9,_Trial_,Start,1771505284375,1,test,4,Pos,B,NULL
1771505979,7bc5e622ba9b35b726123fe5a4c04991,PennController,6,0,test_phase1,NULL,PennController,9,_Header_,Start,1771505284375,1,test,4,Pos,B,NULL
1771505979,7bc5e622ba9b35b726123fe5a4c04991,PennController,6,0,test_phase1,NULL,PennController,9,_Header_,End,1771505284625,1,test,4,Pos,B,NULL
1771505979,7bc5e622ba9b35b726123fe5a4c04991,PennController,6,0,test_phase1,NULL,Scale,R1B,Choice,Very Good,1771505298067,1,test,4,Pos,B,NULL
1771505979,7bc5e622ba9b35b726123fe5a4c04991,PennController,6,0,test_phase1,NULL,Scale,R2,Choice,Definitely there is a correct answer,1771505299872,1,test,4,Pos,B,NULL
1771505979,7bc5e622ba9b35b726123fe5a4c04991,PennController,6,0,test_phase1,NULL,Scale,R3,Choice,Most of them would agree with me,1771505300938,1,test,4,Pos,B,NULL
1771505979,7bc5e622ba9b35b726123fe5a4c04991,PennController,6,0,test_phase1,NULL,Scale,R4,Choice,Very easy,1771505302819,1,test,4,Pos,B,NULL
1771505979,7bc5e622ba9b35b726123fe5a4c04991,PennController,6,0,test_phase1,NULL,PennController,9,_Trial_,End,1771505303547,1,test,4,Pos,B,NULL
1771505979,7bc5e622ba9b35b726123fe5a4c04991,PennController,7,0,test_phase1,NULL,PennController,10,_Trial_,Start,1771505303548,1,test,6,Pos,B,NULL
1771505979,7bc5e622ba9b35b726123fe5a4c04991,PennController,7,0,test_phase1,NULL,PennController,10,_Header_,Start,1771505303548,1,test,6,Pos,B,NULL
1771505979,7bc5e622ba9b35b726123fe5a4c04991,PennController,7,0,test_phase1,NULL,PennController,10,_Header_,End,1771505303800,1,test,6,Pos,B,NULL
1771505979,7bc5e622ba9b35b726123fe5a4c04991,PennController,7,0,test_phase1,NULL,Scale,R1B,Choice,Good,1771505316008,1,test,6,Pos,B,NULL
1771505979,7bc5e622ba9b35b726123fe5a4c04991,PennController,7,0,test_phase1,NULL,Scale,R2,Choice,Probably there is a correct answer,1771505317364,1,test,6,Pos,B,NULL
1771505979,7bc5e622ba9b35b726123fe5a4c04991,PennController,7,0,test_phase1,NULL,Scale,R3,Choice,Most of them would agree with me,1771505318429,1,test,6,Pos,B,NULL
1771505979,7bc5e622ba9b35b726123fe5a4c04991,PennController,7,0,test_phase1,NULL,Scale,R4,Choice,Very easy,1771505320531,1,test,6,Pos,B,NULL
1771505979,7bc5e622ba9b35b726123fe5a4c04991,PennController,7,0,test_phase1,NULL,PennController,10,_Trial_,End,1771505321301,1,test,6,Pos,B,NULL
1771505979,7bc5e622ba9b35b726123fe5a4c04991,PennController,12,0,test_phase1,NULL,PennController,15,_Trial_,Start,1771505321302,1,test,5,Neg,B,NULL
1771505979,7bc5e622ba9b35b726123fe5a4c04991,PennController,12,0,test_phase1,NULL,PennController,15,_Header_,Start,1771505321302,1,test,5,Neg,B,NULL
1771505979,7bc5e622ba9b35b726123fe5a4c04991,PennController,12,0,test_phase1,NULL,PennController,15,_Header_,End,1771505321553,1,test,5,Neg,B,NULL
1771505979,7bc5e622ba9b35b726123fe5a4c04991,PennController,12,0,test_phase1,NULL,Scale,R1B,Choice,Somewhat wrong,1771505336868,1,test,5,Neg,B,NULL
1771505979,7bc5e622ba9b35b726123fe5a4c04991,PennController,12,0,test_phase1,NULL,Scale,R2,Choice,Maybe there is a correct answer,1771505341289,1,test,5,Neg,B,NULL
1771505979,7bc5e622ba9b35b726123fe5a4c04991,PennController,12,0,test_phase1,NULL,Scale,R3,Choice,Some of them would agree with me,1771505342411,1,test,5,Neg,B,NULL
1771505979,7bc5e622ba9b35b726123fe5a4c04991,PennController,12,0,test_phase1,NULL,Scale,R4,Choice,Somewhat easy,1771505343546,1,test,5,Neg,B,NULL
1771505979,7bc5e622ba9b35b726123fe5a4c04991,PennController,12,0,test_phase1,NULL,PennController,15,_Trial_,End,1771505344245,1,test,5,Neg,B,NULL
1771505979,7bc5e622ba9b35b726123fe5a4c04991,PennController,11,0,test_phase1,NULL,PennController,14,_Trial_,Start,1771505344246,1,test,3,Neg,B,NULL
1771505979,7bc5e622ba9b35b726123fe5a4c04991,PennController,11,0,test_phase1,NULL,PennController,14,_Header_,Start,1771505344246,1,test,3,Neg,B,NULL
1771505979,7bc5e622ba9b35b726123fe5a4c04991,PennController,11,0,test_phase1,NULL,PennController,14,_Header_,End,1771505344498,1,test,3,Neg,B,NULL
1771505979,7bc5e622ba9b35b726123fe5a4c04991,PennController,11,0,test_phase1,NULL,Scale,R1B,Choice,Good,1771505372350,1,test,3,Neg,B,NULL
1771505979,7bc5e622ba9b35b726123fe5a4c04991,PennController,11,0,test_phase1,NULL,Scale,R2,Choice,Maybe there is a correct answer,1771505373685,1,test,3,Neg,B,NULL
1771505979,7bc5e622ba9b35b726123fe5a4c04991,PennController,11,0,test_phase1,NULL,Scale,R3,Choice,Some of them would agree with me,1771505374688,1,test,3,Neg,B,NULL
1771505979,7bc5e622ba9b35b726123fe5a4c04991,PennController,11,0,test_phase1,NULL,Scale,R4,Choice,A little easy,1771505377054,1,test,3,Neg,B,NULL
1771505979,7bc5e622ba9b35b726123fe5a4c04991,PennController,11,0,test_phase1,NULL,PennController,14,_Trial_,End,1771505378114,1,test,3,Neg,B,NULL
1771505979,7bc5e622ba9b35b726123fe5a4c04991,PennController,13,0,test_phase1,NULL,PennController,16,_Trial_,Start,1771505378115,1,test,7,Neg,B,NULL
1771505979,7bc5e622ba9b35b726123fe5a4c04991,PennController,13,0,test_phase1,NULL,PennController,16,_Header_,Start,1771505378115,1,test,7,Neg,B,NULL
1771505979,7bc5e622ba9b35b726123fe5a4c04991,PennController,13,0,test_phase1,NULL,PennController,16,_Header_,End,1771505378366,1,test,7,Neg,B,NULL
1771505979,7bc5e622ba9b35b726123fe5a4c04991,PennController,13,0,test_phase1,NULL,Scale,R1B,Choice,Good,1771505386167,1,test,7,Neg,B,NULL
1771505979,7bc5e622ba9b35b726123fe5a4c04991,PennController,13,0,test_phase1,NULL,Scale,R2,Choice,Maybe there is a correct answer,1771505387959,1,test,7,Neg,B,NULL
1771505979,7bc5e622ba9b35b726123fe5a4c04991,PennController,13,0,test_phase1,NULL,Scale,R3,Choice,Some of them would agree with me,1771505389446,1,test,7,Neg,B,NULL
1771505979,7bc5e622ba9b35b726123fe5a4c04991,PennController,13,0,test_phase1,NULL,Scale,R4,Choice,Very easy,1771505391999,1,test,7,Neg,B,NULL
1771505979,7bc5e622ba9b35b726123fe5a4c04991,PennController,13,0,test_phase1,NULL,PennController,16,_Trial_,End,1771505392775,1,test,7,Neg,B,NULL
1771505979,7bc5e622ba9b35b726123fe5a4c04991,PennController,17,0,fillers,NULL,PennController,20,_Trial_,Start,1771505392776,1,filler,3,none,none,NULL
1771505979,7bc5e622ba9b35b726123fe5a4c04991,PennController,17,0,fillers,NULL,PennController,20,_Header_,Start,1771505392776,1,filler,3,none,none,NULL
1771505979,7bc5e622ba9b35b726123fe5a4c04991,PennController,17,0,fillers,NULL,PennController,20,_Header_,End,1771505393029,1,filler,3,none,none,NULL
1771505979,7bc5e622ba9b35b726123fe5a4c04991,PennController,17,0,fillers,NULL,Scale,R1B,Choice,Good,1771505423767,1,filler,3,none,none,NULL
1771505979,7bc5e622ba9b35b726123fe5a4c04991,PennController,17,0,fillers,NULL,Scale,R2,Choice,Maybe there is a correct answer,1771505425034,1,filler,3,none,none,NULL
1771505979,7bc5e622ba9b35b726123fe5a4c04991,PennController,17,0,fillers,NULL,Scale,R3,Choice,Some of them would agree with me,1771505426265,1,filler,3,none,none,NULL
1771505979,7bc5e622ba9b35b726123fe5a4c04991,PennController,17,0,fillers,NULL,Scale,R4,Choice,A little easy,1771505429898,1,filler,3,none,none,NULL
1771505979,7bc5e622ba9b35b726123fe5a4c04991,PennController,17,0,fillers,NULL,PennController,20,_Trial_,End,1771505438500,1,filler,3,none,none,NULL
1771505979,7bc5e622ba9b35b726123fe5a4c04991,PennController,16,0,fillers,NULL,PennController,19,_Trial_,Start,1771505438500,1,filler,2,none,none,NULL
1771505979,7bc5e622ba9b35b726123fe5a4c04991,PennController,16,0,fillers,NULL,PennController,19,_Header_,Start,1771505438500,1,filler,2,none,none,NULL
1771505979,7bc5e622ba9b35b726123fe5a4c04991,PennController,16,0,fillers,NULL,PennController,19,_Header_,End,1771505438751,1,filler,2,none,none,NULL
1771505979,7bc5e622ba9b35b726123fe5a4c04991,PennController,16,0,fillers,NULL,Scale,R1B,Choice,Somewhat wrong,1771505445478,1,filler,2,none,none,NULL
1771505979,7bc5e622ba9b35b726123fe5a4c04991,PennController,16,0,fillers,NULL,Scale,R2,Choice,Probably there is a correct answer,1771505447504,1,filler,2,none,none,NULL
1771505979,7bc5e622ba9b35b726123fe5a4c04991,PennController,16,0,fillers,NULL,Scale,R3,Choice,Some of them would agree with me,1771505448680,1,filler,2,none,none,NULL
1771505979,7bc5e622ba9b35b726123fe5a4c04991,PennController,16,0,fillers,NULL,Scale,R4,Choice,Somewhat easy,1771505450880,1,filler,2,none,none,NULL
1771505979,7bc5e622ba9b35b726123fe5a4c04991,PennController,16,0,fillers,NULL,PennController,19,_Trial_,End,1771505451642,1,filler,2,none,none,NULL
1771505979,7bc5e622ba9b35b726123fe5a4c04991,PennController,26,0,fillers,NULL,PennController,29,_Trial_,Start,1771505451642,1,filler,12,none,none,NULL
1771505979,7bc5e622ba9b35b726123fe5a4c04991,PennController,26,0,fillers,NULL,PennController,29,_Header_,Start,1771505451642,1,filler,12,none,none,NULL
1771505979,7bc5e622ba9b35b726123fe5a4c04991,PennController,26,0,fillers,NULL,PennController,29,_Header_,End,1771505451895,1,filler,12,none,none,NULL
1771505979,7bc5e622ba9b35b726123fe5a4c04991,PennController,26,0,fillers,NULL,Scale,R1B,Choice,Good,1771505468576,1,filler,12,none,none,NULL
1771505979,7bc5e622ba9b35b726123fe5a4c04991,PennController,26,0,fillers,NULL,Scale,R2,Choice,Maybe there is a correct answer,1771505469551,1,filler,12,none,none,NULL
1771505979,7bc5e622ba9b35b726123fe5a4c04991,PennController,26,0,fillers,NULL,Scale,R3,Choice,Some of them would agree with me,1771505471246,1,filler,12,none,none,NULL
1771505979,7bc5e622ba9b35b726123fe5a4c04991,PennController,26,0,fillers,NULL,Scale,R4,Choice,A little difficult,1771505473537,1,filler,12,none,none,NULL
1771505979,7bc5e622ba9b35b726123fe5a4c04991,PennController,26,0,fillers,NULL,PennController,29,_Trial_,End,1771505474328,1,filler,12,none,none,NULL
1771505979,7bc5e622ba9b35b726123fe5a4c04991,PennController,22,0,fillers,NULL,PennController,25,_Trial_,Start,1771505474329,1,filler,8,none,none,NULL
1771505979,7bc5e622ba9b35b726123fe5a4c04991,PennController,22,0,fillers,NULL,PennController,25,_Header_,Start,1771505474329,1,filler,8,none,none,NULL
1771505979,7bc5e622ba9b35b726123fe5a4c04991,PennController,22,0,fillers,NULL,PennController,25,_Header_,End,1771505474583,1,filler,8,none,none,NULL
1771505979,7bc5e622ba9b35b726123fe5a4c04991,PennController,22,0,fillers,NULL,Scale,R1B,Choice,Bad,1771505492885,1,filler,8,none,none,NULL
1771505979,7bc5e622ba9b35b726123fe5a4c04991,PennController,22,0,fillers,NULL,Scale,R2,Choice,Definitely there is a correct answer,1771505495189,1,filler,8,none,none,NULL
1771505979,7bc5e622ba9b35b726123fe5a4c04991,PennController,22,0,fillers,NULL,Scale,R3,Choice,Most of them would agree with me,1771505498330,1,filler,8,none,none,NULL
1771505979,7bc5e622ba9b35b726123fe5a4c04991,PennController,22,0,fillers,NULL,Scale,R4,Choice,Very easy,1771505499236,1,filler,8,none,none,NULL
1771505979,7bc5e622ba9b35b726123fe5a4c04991,PennController,22,0,fillers,NULL,PennController,25,_Trial_,End,1771505500123,1,filler,8,none,none,NULL
1771505979,7bc5e622ba9b35b726123fe5a4c04991,PennController,24,0,fillers,NULL,PennController,27,_Trial_,Start,1771505500124,1,filler,10,none,none,NULL
1771505979,7bc5e622ba9b35b726123fe5a4c04991,PennController,24,0,fillers,NULL,PennController,27,_Header_,Start,1771505500124,1,filler,10,none,none,NULL
1771505979,7bc5e622ba9b35b726123fe5a4c04991,PennController,24,0,fillers,NULL,PennController,27,_Header_,End,1771505500375,1,filler,10,none,none,NULL
1771505979,7bc5e622ba9b35b726123fe5a4c04991,PennController,24,0,fillers,NULL,Scale,R1B,Choice,Good,1771505529184,1,filler,10,none,none,NULL
1771505979,7bc5e622ba9b35b726123fe5a4c04991,PennController,24,0,fillers,NULL,Scale,R2,Choice,Maybe no correct answer,1771505530277,1,filler,10,none,none,NULL
1771505979,7bc5e622ba9b35b726123fe5a4c04991,PennController,24,0,fillers,NULL,Scale,R3,Choice,Some of them would agree with me,1771505531422,1,filler,10,none,none,NULL
1771505979,7bc5e622ba9b35b726123fe5a4c04991,PennController,24,0,fillers,NULL,Scale,R4,Choice,A little easy,1771505533618,1,filler,10,none,none,NULL
1771505979,7bc5e622ba9b35b726123fe5a4c04991,PennController,24,0,fillers,NULL,PennController,27,_Trial_,End,1771505535535,1,filler,10,none,none,NULL
1771505979,7bc5e622ba9b35b726123fe5a4c04991,PennController,23,0,fillers,NULL,PennController,26,_Trial_,Start,1771505535536,1,filler,9,none,none,NULL
1771505979,7bc5e622ba9b35b726123fe5a4c04991,PennController,23,0,fillers,NULL,PennController,26,_Header_,Start,1771505535536,1,filler,9,none,none,NULL
1771505979,7bc5e622ba9b35b726123fe5a4c04991,PennController,23,0,fillers,NULL,PennController,26,_Header_,End,1771505535788,1,filler,9,none,none,NULL
1771505979,7bc5e622ba9b35b726123fe5a4c04991,PennController,23,0,fillers,NULL,Scale,R1B,Choice,Somewhat wrong,1771505547326,1,filler,9,none,none,NULL
1771505979,7bc5e622ba9b35b726123fe5a4c04991,PennController,23,0,fillers,NULL,Scale,R2,Choice,Maybe no correct answer,1771505548528,1,filler,9,none,none,NULL
1771505979,7bc5e622ba9b35b726123fe5a4c04991,PennController,23,0,fillers,NULL,Scale,R3,Choice,Some of them would agree with me,1771505549690,1,filler,9,none,none,NULL
1771505979,7bc5e622ba9b35b726123fe5a4c04991,PennController,23,0,fillers,NULL,Scale,R4,Choice,A little easy,1771505552325,1,filler,9,none,none,NULL
1771505979,7bc5e622ba9b35b726123fe5a4c04991,PennController,23,0,fillers,NULL,PennController,26,_Trial_,End,1771505553150,1,filler,9,none,none,NULL
1771505979,7bc5e622ba9b35b726123fe5a4c04991,PennController,27,0,fillers,NULL,PennController,30,_Trial_,Start,1771505553152,1,filler,13,none,none,NULL
1771505979,7bc5e622ba9b35b726123fe5a4c04991,PennController,27,0,fillers,NULL,PennController,30,_Header_,Start,1771505553152,1,filler,13,none,none,NULL
1771505979,7bc5e622ba9b35b726123fe5a4c04991,PennController,27,0,fillers,NULL,PennController,30,_Header_,End,1771505553403,1,filler,13,none,none,NULL
1771505979,7bc5e622ba9b35b726123fe5a4c04991,PennController,27,0,fillers,NULL,Scale,R2,Choice,Maybe there is a correct answer,1771505579620,1,filler,13,none,none,NULL
1771505979,7bc5e622ba9b35b726123fe5a4c04991,PennController,27,0,fillers,NULL,Scale,R3,Choice,Most of them would agree with me,1771505582172,1,filler,13,none,none,NULL
1771505979,7bc5e622ba9b35b726123fe5a4c04991,PennController,27,0,fillers,NULL,Scale,R4,Choice,Somewhat easy,1771505582989,1,filler,13,none,none,NULL
1771505979,7bc5e622ba9b35b726123fe5a4c04991,PennController,27,0,fillers,NULL,Scale,R1B,Choice,Good,1771505588232,1,filler,13,none,none,NULL
1771505979,7bc5e622ba9b35b726123fe5a4c04991,PennController,27,0,fillers,NULL,PennController,30,_Trial_,End,1771505590738,1,filler,13,none,none,NULL
1771505979,7bc5e622ba9b35b726123fe5a4c04991,PennController,19,0,fillers,NULL,PennController,22,_Trial_,Start,1771505590739,1,filler,5,none,none,NULL
1771505979,7bc5e622ba9b35b726123fe5a4c04991,PennController,19,0,fillers,NULL,PennController,22,_Header_,Start,1771505590739,1,filler,5,none,none,NULL
1771505979,7bc5e622ba9b35b726123fe5a4c04991,PennController,19,0,fillers,NULL,PennController,22,_Header_,End,1771505590989,1,filler,5,none,none,NULL
1771505979,7bc5e622ba9b35b726123fe5a4c04991,PennController,19,0,fillers,NULL,Scale,R1B,Choice,Somewhat wrong,1771505598161,1,filler,5,none,none,NULL
1771505979,7bc5e622ba9b35b726123fe5a4c04991,PennController,19,0,fillers,NULL,Scale,R2,Choice,Probably there is a correct answer,1771505602499,1,filler,5,none,none,NULL
1771505979,7bc5e622ba9b35b726123fe5a4c04991,PennController,19,0,fillers,NULL,Scale,R3,Choice,Most of them would agree with me,1771505603598,1,filler,5,none,none,NULL
1771505979,7bc5e622ba9b35b726123fe5a4c04991,PennController,19,0,fillers,NULL,Scale,R4,Choice,Very easy,1771505604450,1,filler,5,none,none,NULL
1771505979,7bc5e622ba9b35b726123fe5a4c04991,PennController,19,0,fillers,NULL,PennController,22,_Trial_,End,1771505605260,1,filler,5,none,none,NULL
1771505979,7bc5e622ba9b35b726123fe5a4c04991,PennController,15,0,fillers,NULL,PennController,18,_Trial_,Start,1771505605261,1,filler,1,none,none,NULL
1771505979,7bc5e622ba9b35b726123fe5a4c04991,PennController,15,0,fillers,NULL,PennController,18,_Header_,Start,1771505605261,1,filler,1,none,none,NULL
1771505979,7bc5e622ba9b35b726123fe5a4c04991,PennController,15,0,fillers,NULL,PennController,18,_Header_,End,1771505605514,1,filler,1,none,none,NULL
1771505979,7bc5e622ba9b35b726123fe5a4c04991,PennController,15,0,fillers,NULL,Scale,R1B,Choice,Good,1771505608684,1,filler,1,none,none,NULL
1771505979,7bc5e622ba9b35b726123fe5a4c04991,PennController,15,0,fillers,NULL,Scale,R2,Choice,Probably there is a correct answer,1771505614530,1,filler,1,none,none,NULL
1771505979,7bc5e622ba9b35b726123fe5a4c04991,PennController,15,0,fillers,NULL,Scale,R4,Choice,Somewhat easy,1771505616502,1,filler,1,none,none,NULL
1771505979,7bc5e622ba9b35b726123fe5a4c04991,PennController,15,0,fillers,NULL,Scale,R3,Choice,Some of them would agree with me,1771505621578,1,filler,1,none,none,NULL
1771505979,7bc5e622ba9b35b726123fe5a4c04991,PennController,15,0,fillers,NULL,PennController,18,_Trial_,End,1771505622812,1,filler,1,none,none,NULL
1771505979,7bc5e622ba9b35b726123fe5a4c04991,PennController,21,0,fillers,NULL,PennController,24,_Trial_,Start,1771505622813,1,filler,7,none,none,NULL
1771505979,7bc5e622ba9b35b726123fe5a4c04991,PennController,21,0,fillers,NULL,PennController,24,_Header_,Start,1771505622813,1,filler,7,none,none,NULL
1771505979,7bc5e622ba9b35b726123fe5a4c04991,PennController,21,0,fillers,NULL,PennController,24,_Header_,End,1771505623066,1,filler,7,none,none,NULL
1771505979,7bc5e622ba9b35b726123fe5a4c04991,PennController,21,0,fillers,NULL,Scale,R1B,Choice,Somewhat wrong,1771505695336,1,filler,7,none,none,NULL
1771505979,7bc5e622ba9b35b726123fe5a4c04991,PennController,21,0,fillers,NULL,Scale,R2,Choice,Maybe there is a correct answer,1771505696498,1,filler,7,none,none,NULL
1771505979,7bc5e622ba9b35b726123fe5a4c04991,PennController,21,0,fillers,NULL,Scale,R3,Choice,Some of them would agree with me,1771505698794,1,filler,7,none,none,NULL
1771505979,7bc5e622ba9b35b726123fe5a4c04991,PennController,21,0,fillers,NULL,Scale,R4,Choice,Somewhat easy,1771505699652,1,filler,7,none,none,NULL
1771505979,7bc5e622ba9b35b726123fe5a4c04991,PennController,21,0,fillers,NULL,PennController,24,_Trial_,End,1771505700538,1,filler,7,none,none,NULL
1771505979,7bc5e622ba9b35b726123fe5a4c04991,PennController,18,0,fillers,NULL,PennController,21,_Trial_,Start,1771505700539,1,filler,4,none,none,NULL
1771505979,7bc5e622ba9b35b726123fe5a4c04991,PennController,18,0,fillers,NULL,PennController,21,_Header_,Start,1771505700539,1,filler,4,none,none,NULL
1771505979,7bc5e622ba9b35b726123fe5a4c04991,PennController,18,0,fillers,NULL,PennController,21,_Header_,End,1771505700790,1,filler,4,none,none,NULL
1771505979,7bc5e622ba9b35b726123fe5a4c04991,PennController,18,0,fillers,NULL,Scale,R1B,Choice,Good,1771505705268,1,filler,4,none,none,NULL
1771505979,7bc5e622ba9b35b726123fe5a4c04991,PennController,18,0,fillers,NULL,Scale,R3,Choice,Most of them would agree with me,1771505707295,1,filler,4,none,none,NULL
1771505979,7bc5e622ba9b35b726123fe5a4c04991,PennController,18,0,fillers,NULL,Scale,R4,Choice,Somewhat easy,1771505711556,1,filler,4,none,none,NULL
1771505979,7bc5e622ba9b35b726123fe5a4c04991,PennController,18,0,fillers,NULL,Scale,R2,Choice,Probably there is a correct answer,1771505715485,1,filler,4,none,none,NULL
1771505979,7bc5e622ba9b35b726123fe5a4c04991,PennController,18,0,fillers,NULL,PennController,21,_Trial_,End,1771505717610,1,filler,4,none,none,NULL
1771505979,7bc5e622ba9b35b726123fe5a4c04991,PennController,25,0,fillers,NULL,PennController,28,_Trial_,Start,1771505717610,1,filler,11,none,none,NULL
1771505979,7bc5e622ba9b35b726123fe5a4c04991,PennController,25,0,fillers,NULL,PennController,28,_Header_,Start,1771505717610,1,filler,11,none,none,NULL
1771505979,7bc5e622ba9b35b726123fe5a4c04991,PennController,25,0,fillers,NULL,PennController,28,_Header_,End,1771505717863,1,filler,11,none,none,NULL
1771505979,7bc5e622ba9b35b726123fe5a4c04991,PennController,25,0,fillers,NULL,Scale,R1B,Choice,Bad,1771505723551,1,filler,11,none,none,NULL
1771505979,7bc5e622ba9b35b726123fe5a4c04991,PennController,25,0,fillers,NULL,Scale,R2,Choice,Definitely there is a correct answer,1771505724748,1,filler,11,none,none,NULL
1771505979,7bc5e622ba9b35b726123fe5a4c04991,PennController,25,0,fillers,NULL,Scale,R3,Choice,Most of them would agree with me,1771505727360,1,filler,11,none,none,NULL
1771505979,7bc5e622ba9b35b726123fe5a4c04991,PennController,25,0,fillers,NULL,Scale,R4,Choice,Very easy,1771505729632,1,filler,11,none,none,NULL
1771505979,7bc5e622ba9b35b726123fe5a4c04991,PennController,25,0,fillers,NULL,PennController,28,_Trial_,End,1771505731247,1,filler,11,none,none,NULL
1771505979,7bc5e622ba9b35b726123fe5a4c04991,PennController,28,0,fillers,NULL,PennController,31,_Trial_,Start,1771505731248,1,filler,14,none,none,NULL
1771505979,7bc5e622ba9b35b726123fe5a4c04991,PennController,28,0,fillers,NULL,PennController,31,_Header_,Start,1771505731248,1,filler,14,none,none,NULL
1771505979,7bc5e622ba9b35b726123fe5a4c04991,PennController,28,0,fillers,NULL,PennController,31,_Header_,End,1771505731501,1,filler,14,none,none,NULL
1771505979,7bc5e622ba9b35b726123fe5a4c04991,PennController,28,0,fillers,NULL,Scale,R1B,Choice,Bad,1771505745643,1,filler,14,none,none,NULL
1771505979,7bc5e622ba9b35b726123fe5a4c04991,PennController,28,0,fillers,NULL,Scale,R2,Choice,Probably there is a correct answer,1771505748514,1,filler,14,none,none,NULL
1771505979,7bc5e622ba9b35b726123fe5a4c04991,PennController,28,0,fillers,NULL,Scale,R3,Choice,Most of them would agree with me,1771505749574,1,filler,14,none,none,NULL
1771505979,7bc5e622ba9b35b726123fe5a4c04991,PennController,28,0,fillers,NULL,Scale,R4,Choice,Somewhat easy,1771505750444,1,filler,14,none,none,NULL
1771505979,7bc5e622ba9b35b726123fe5a4c04991,PennController,28,0,fillers,NULL,PennController,31,_Trial_,End,1771505752782,1,filler,14,none,none,NULL
1771505979,7bc5e622ba9b35b726123fe5a4c04991,PennController,20,0,fillers,NULL,PennController,23,_Trial_,Start,1771505752783,1,filler,6,none,none,NULL
1771505979,7bc5e622ba9b35b726123fe5a4c04991,PennController,20,0,fillers,NULL,PennController,23,_Header_,Start,1771505752783,1,filler,6,none,none,NULL
1771505979,7bc5e622ba9b35b726123fe5a4c04991,PennController,20,0,fillers,NULL,PennController,23,_Header_,End,1771505753036,1,filler,6,none,none,NULL
1771505979,7bc5e622ba9b35b726123fe5a4c04991,PennController,20,0,fillers,NULL,Scale,R1B,Choice,Good,1771505763872,1,filler,6,none,none,NULL
1771505979,7bc5e622ba9b35b726123fe5a4c04991,PennController,20,0,fillers,NULL,Scale,R2,Choice,Maybe there is a correct answer,1771505765228,1,filler,6,none,none,NULL
1771505979,7bc5e622ba9b35b726123fe5a4c04991,PennController,20,0,fillers,NULL,Scale,R3,Choice,Most of them would agree with me,1771505766625,1,filler,6,none,none,NULL
1771505979,7bc5e622ba9b35b726123fe5a4c04991,PennController,20,0,fillers,NULL,Scale,R4,Choice,Somewhat easy,1771505770003,1,filler,6,none,none,NULL
1771505979,7bc5e622ba9b35b726123fe5a4c04991,PennController,20,0,fillers,NULL,PennController,23,_Trial_,End,1771505770880,1,filler,6,none,none,NULL
# 13. Comments.
1771505979,7bc5e622ba9b35b726123fe5a4c04991,PennController,42,0,instructions2,NULL,PennController,5,_Trial_,Start,1771505770881,NULL
1771505979,7bc5e622ba9b35b726123fe5a4c04991,PennController,42,0,instructions2,NULL,PennController,5,_Header_,Start,1771505770881,NULL
1771505979,7bc5e622ba9b35b726123fe5a4c04991,PennController,42,0,instructions2,NULL,PennController,5,_Header_,End,1771505771132,NULL
1771505979,7bc5e622ba9b35b726123fe5a4c04991,PennController,42,0,instructions2,NULL,PennController,5,_Trial_,End,1771505797880,NULL
# 13. Phase.
# 14. TrialType.
# 15. Number.
# 16. Valence.
# 17. Group.
# 18. Comments.
1771505979,7bc5e622ba9b35b726123fe5a4c04991,PennController,35,0,test_phase2,NULL,PennController,38,_Trial_,Start,1771505797881,2,test,3,Neg,B,NULL
1771505979,7bc5e622ba9b35b726123fe5a4c04991,PennController,35,0,test_phase2,NULL,PennController,38,_Header_,Start,1771505797881,2,test,3,Neg,B,NULL
1771505979,7bc5e622ba9b35b726123fe5a4c04991,PennController,35,0,test_phase2,NULL,PennController,38,_Header_,End,1771505798131,2,test,3,Neg,B,NULL
1771505979,7bc5e622ba9b35b726123fe5a4c04991,PennController,35,0,test_phase2,NULL,Scale,R5,Choice,Neither of us needs to be mistaken,1771505822769,2,test,3,Neg,B,NULL
1771505979,7bc5e622ba9b35b726123fe5a4c04991,PennController,35,0,test_phase2,NULL,Scale,R6,Choice,Very comfortable,1771505826455,2,test,3,Neg,B,NULL
1771505979,7bc5e622ba9b35b726123fe5a4c04991,PennController,35,0,test_phase2,NULL,PennController,38,_Trial_,End,1771505829709,2,test,3,Neg,B,NULL
1771505979,7bc5e622ba9b35b726123fe5a4c04991,PennController,29,0,test_phase2,NULL,PennController,32,_Trial_,Start,1771505829710,2,test,2,Pos,B,NULL
1771505979,7bc5e622ba9b35b726123fe5a4c04991,PennController,29,0,test_phase2,NULL,PennController,32,_Header_,Start,1771505829710,2,test,2,Pos,B,NULL
1771505979,7bc5e622ba9b35b726123fe5a4c04991,PennController,29,0,test_phase2,NULL,PennController,32,_Header_,End,1771505829962,2,test,2,Pos,B,NULL
1771505979,7bc5e622ba9b35b726123fe5a4c04991,PennController,29,0,test_phase2,NULL,Scale,R5,Choice,The other person is likely mistaken,1771505838325,2,test,2,Pos,B,NULL
1771505979,7bc5e622ba9b35b726123fe5a4c04991,PennController,29,0,test_phase2,NULL,Scale,R6,Choice,Mildly uncomfortable,1771505841161,2,test,2,Pos,B,NULL
1771505979,7bc5e622ba9b35b726123fe5a4c04991,PennController,29,0,test_phase2,NULL,PennController,32,_Trial_,End,1771505842284,2,test,2,Pos,B,NULL
1771505979,7bc5e622ba9b35b726123fe5a4c04991,PennController,38,0,test_phase2,NULL,PennController,41,_Trial_,Start,1771505842284,2,test,9,Neg,B,NULL
1771505979,7bc5e622ba9b35b726123fe5a4c04991,PennController,38,0,test_phase2,NULL,PennController,41,_Header_,Start,1771505842284,2,test,9,Neg,B,NULL
1771505979,7bc5e622ba9b35b726123fe5a4c04991,PennController,38,0,test_phase2,NULL,PennController,41,_Header_,End,1771505842536,2,test,9,Neg,B,NULL
1771505979,7bc5e622ba9b35b726123fe5a4c04991,PennController,38,0,test_phase2,NULL,Scale,R6,Choice,Mildly uncomfortable,1771505853123,2,test,9,Neg,B,NULL
1771505979,7bc5e622ba9b35b726123fe5a4c04991,PennController,38,0,test_phase2,NULL,Scale,R5,Choice,The other person is likely mistaken,1771505857252,2,test,9,Neg,B,NULL
1771505979,7bc5e622ba9b35b726123fe5a4c04991,PennController,38,0,test_phase2,NULL,PennController,41,_Trial_,End,1771505859183,2,test,9,Neg,B,NULL
1771505979,7bc5e622ba9b35b726123fe5a4c04991,PennController,33,0,test_phase2,NULL,PennController,36,_Trial_,Start,1771505859184,2,test,10,Pos,B,NULL
1771505979,7bc5e622ba9b35b726123fe5a4c04991,PennController,33,0,test_phase2,NULL,PennController,36,_Header_,Start,1771505859184,2,test,10,Pos,B,NULL
1771505979,7bc5e622ba9b35b726123fe5a4c04991,PennController,33,0,test_phase2,NULL,PennController,36,_Header_,End,1771505859434,2,test,10,Pos,B,NULL
1771505979,7bc5e622ba9b35b726123fe5a4c04991,PennController,33,0,test_phase2,NULL,Scale,R5,Choice,The other person is maybe mistaken,1771505866671,2,test,10,Pos,B,NULL
1771505979,7bc5e622ba9b35b726123fe5a4c04991,PennController,33,0,test_phase2,NULL,Scale,R6,Choice,Mildly comfortable,1771505868179,2,test,10,Pos,B,NULL
1771505979,7bc5e622ba9b35b726123fe5a4c04991,PennController,33,0,test_phase2,NULL,PennController,36,_Trial_,End,1771505869087,2,test,10,Pos,B,NULL
1771505979,7bc5e622ba9b35b726123fe5a4c04991,PennController,30,0,test_phase2,NULL,PennController,33,_Trial_,Start,1771505869088,2,test,4,Pos,B,NULL
1771505979,7bc5e622ba9b35b726123fe5a4c04991,PennController,30,0,test_phase2,NULL,PennController,33,_Header_,Start,1771505869088,2,test,4,Pos,B,NULL
1771505979,7bc5e622ba9b35b726123fe5a4c04991,PennController,30,0,test_phase2,NULL,PennController,33,_Header_,End,1771505869342,2,test,4,Pos,B,NULL
1771505979,7bc5e622ba9b35b726123fe5a4c04991,PennController,30,0,test_phase2,NULL,Scale,R5,Choice,The other person is likely mistaken,1771505873940,2,test,4,Pos,B,NULL
1771505979,7bc5e622ba9b35b726123fe5a4c04991,PennController,30,0,test_phase2,NULL,Scale,R6,Choice,Mildly uncomfortable,1771505880595,2,test,4,Pos,B,NULL
1771505979,7bc5e622ba9b35b726123fe5a4c04991,PennController,30,0,test_phase2,NULL,PennController,33,_Trial_,End,1771505881395,2,test,4,Pos,B,NULL
1771505979,7bc5e622ba9b35b726123fe5a4c04991,PennController,34,0,test_phase2,NULL,PennController,37,_Trial_,Start,1771505881396,2,test,1,Neg,B,NULL
1771505979,7bc5e622ba9b35b726123fe5a4c04991,PennController,34,0,test_phase2,NULL,PennController,37,_Header_,Start,1771505881396,2,test,1,Neg,B,NULL
1771505979,7bc5e622ba9b35b726123fe5a4c04991,PennController,34,0,test_phase2,NULL,PennController,37,_Header_,End,1771505881646,2,test,1,Neg,B,NULL
1771505979,7bc5e622ba9b35b726123fe5a4c04991,PennController,34,0,test_phase2,NULL,Scale,R5,Choice,The other person is clearly mistaken,1771505886661,2,test,1,Neg,B,NULL
1771505979,7bc5e622ba9b35b726123fe5a4c04991,PennController,34,0,test_phase2,NULL,Scale,R6,Choice,Very uncomfortable,1771505889158,2,test,1,Neg,B,NULL
1771505979,7bc5e622ba9b35b726123fe5a4c04991,PennController,34,0,test_phase2,NULL,PennController,37,_Trial_,End,1771505890972,2,test,1,Neg,B,NULL
1771505979,7bc5e622ba9b35b726123fe5a4c04991,PennController,32,0,test_phase2,NULL,PennController,35,_Trial_,Start,1771505890973,2,test,8,Pos,B,NULL
1771505979,7bc5e622ba9b35b726123fe5a4c04991,PennController,32,0,test_phase2,NULL,PennController,35,_Header_,Start,1771505890973,2,test,8,Pos,B,NULL
1771505979,7bc5e622ba9b35b726123fe5a4c04991,PennController,32,0,test_phase2,NULL,PennController,35,_Header_,End,1771505891227,2,test,8,Pos,B,NULL
1771505979,7bc5e622ba9b35b726123fe5a4c04991,PennController,32,0,test_phase2,NULL,Scale,R5,Choice,Maybe neither of us needs to be mistaken,1771505896149,2,test,8,Pos,B,NULL
1771505979,7bc5e622ba9b35b726123fe5a4c04991,PennController,32,0,test_phase2,NULL,Scale,R6,Choice,Very comfortable,1771505899808,2,test,8,Pos,B,NULL
1771505979,7bc5e622ba9b35b726123fe5a4c04991,PennController,32,0,test_phase2,NULL,PennController,35,_Trial_,End,1771505900573,2,test,8,Pos,B,NULL
1771505979,7bc5e622ba9b35b726123fe5a4c04991,PennController,31,0,test_phase2,NULL,PennController,34,_Trial_,Start,1771505900574,2,test,6,Pos,B,NULL
1771505979,7bc5e622ba9b35b726123fe5a4c04991,PennController,31,0,test_phase2,NULL,PennController,34,_Header_,Start,1771505900574,2,test,6,Pos,B,NULL
1771505979,7bc5e622ba9b35b726123fe5a4c04991,PennController,31,0,test_phase2,NULL,PennController,34,_Header_,End,1771505900828,2,test,6,Pos,B,NULL
1771505979,7bc5e622ba9b35b726123fe5a4c04991,PennController,31,0,test_phase2,NULL,Scale,R5,Choice,The other person is maybe mistaken,1771505907215,2,test,6,Pos,B,NULL
1771505979,7bc5e622ba9b35b726123fe5a4c04991,PennController,31,0,test_phase2,NULL,Scale,R6,Choice,Mildly uncomfortable,1771505910052,2,test,6,Pos,B,NULL
1771505979,7bc5e622ba9b35b726123fe5a4c04991,PennController,31,0,test_phase2,NULL,PennController,34,_Trial_,End,1771505911063,2,test,6,Pos,B,NULL
1771505979,7bc5e622ba9b35b726123fe5a4c04991,PennController,36,0,test_phase2,NULL,PennController,39,_Trial_,Start,1771505911064,2,test,5,Neg,B,NULL
1771505979,7bc5e622ba9b35b726123fe5a4c04991,PennController,36,0,test_phase2,NULL,PennController,39,_Header_,Start,1771505911064,2,test,5,Neg,B,NULL
1771505979,7bc5e622ba9b35b726123fe5a4c04991,PennController,36,0,test_phase2,NULL,PennController,39,_Header_,End,1771505911314,2,test,5,Neg,B,NULL
1771505979,7bc5e622ba9b35b726123fe5a4c04991,PennController,36,0,test_phase2,NULL,Scale,R5,Choice,Maybe neither of us needs to be mistaken,1771505915148,2,test,5,Neg,B,NULL
1771505979,7bc5e622ba9b35b726123fe5a4c04991,PennController,36,0,test_phase2,NULL,Scale,R6,Choice,Mildly comfortable,1771505916235,2,test,5,Neg,B,NULL
1771505979,7bc5e622ba9b35b726123fe5a4c04991,PennController,36,0,test_phase2,NULL,PennController,39,_Trial_,End,1771505917352,2,test,5,Neg,B,NULL
1771505979,7bc5e622ba9b35b726123fe5a4c04991,PennController,37,0,test_phase2,NULL,PennController,40,_Trial_,Start,1771505917353,2,test,7,Neg,B,NULL
1771505979,7bc5e622ba9b35b726123fe5a4c04991,PennController,37,0,test_phase2,NULL,PennController,40,_Header_,Start,1771505917353,2,test,7,Neg,B,NULL
1771505979,7bc5e622ba9b35b726123fe5a4c04991,PennController,37,0,test_phase2,NULL,PennController,40,_Header_,End,1771505917603,2,test,7,Neg,B,NULL
1771505979,7bc5e622ba9b35b726123fe5a4c04991,PennController,37,0,test_phase2,NULL,Scale,R5,Choice,Maybe neither of us needs to be mistaken,1771505930619,2,test,7,Neg,B,NULL
1771505979,7bc5e622ba9b35b726123fe5a4c04991,PennController,37,0,test_phase2,NULL,Scale,R6,Choice,Mildly comfortable,1771505931746,2,test,7,Neg,B,NULL
1771505979,7bc5e622ba9b35b726123fe5a4c04991,PennController,37,0,test_phase2,NULL,PennController,40,_Trial_,End,1771505932732,2,test,7,Neg,B,NULL
# 13. Comments.
1771505979,7bc5e622ba9b35b726123fe5a4c04991,PennController,40,0,demo,NULL,PennController,3,_Trial_,Start,1771505932733,NULL
1771505979,7bc5e622ba9b35b726123fe5a4c04991,PennController,40,0,demo,NULL,PennController,3,_Header_,Start,1771505932733,NULL
1771505979,7bc5e622ba9b35b726123fe5a4c04991,PennController,40,0,demo,NULL,PennController,3,_Header_,End,1771505932983,NULL
1771505979,7bc5e622ba9b35b726123fe5a4c04991,PennController,40,0,demo,NULL,Html,bg_form,country,United Kingdom,1771505977610,text input
1771505979,7bc5e622ba9b35b726123fe5a4c04991,PennController,40,0,demo,NULL,Html,bg_form,lang1,English,1771505977610,text input
1771505979,7bc5e622ba9b35b726123fe5a4c04991,PennController,40,0,demo,NULL,Html,bg_form,lang2,,1771505977610,text input
1771505979,7bc5e622ba9b35b726123fe5a4c04991,PennController,40,0,demo,NULL,Html,bg_form,lang3,,1771505977610,text input
1771505979,7bc5e622ba9b35b726123fe5a4c04991,PennController,40,0,demo,NULL,Html,bg_form,moral_reason,unchecked,1771505977610,checkbox
1771505979,7bc5e622ba9b35b726123fe5a4c04991,PennController,40,0,demo,NULL,Html,bg_form,moral_reason,unchecked,1771505977610,checkbox
1771505979,7bc5e622ba9b35b726123fe5a4c04991,PennController,40,0,demo,NULL,Html,bg_form,moral_reason,unchecked,1771505977610,checkbox
1771505979,7bc5e622ba9b35b726123fe5a4c04991,PennController,40,0,demo,NULL,Html,bg_form,moral_reason,checked,1771505977610,checkbox
1771505979,7bc5e622ba9b35b726123fe5a4c04991,PennController,40,0,demo,NULL,Html,bg_form,religion,unchecked,1771505977610,checkbox
1771505979,7bc5e622ba9b35b726123fe5a4c04991,PennController,40,0,demo,NULL,Html,bg_form,religion,unchecked,1771505977610,checkbox
1771505979,7bc5e622ba9b35b726123fe5a4c04991,PennController,40,0,demo,NULL,Html,bg_form,religion,unchecked,1771505977610,checkbox
1771505979,7bc5e622ba9b35b726123fe5a4c04991,PennController,40,0,demo,NULL,Html,bg_form,religion,unchecked,1771505977610,checkbox
1771505979,7bc5e622ba9b35b726123fe5a4c04991,PennController,40,0,demo,NULL,Html,bg_form,religion,unchecked,1771505977610,checkbox
1771505979,7bc5e622ba9b35b726123fe5a4c04991,PennController,40,0,demo,NULL,Html,bg_form,religion,unchecked,1771505977610,checkbox
1771505979,7bc5e622ba9b35b726123fe5a4c04991,PennController,40,0,demo,NULL,Html,bg_form,religion,unchecked,1771505977610,checkbox
1771505979,7bc5e622ba9b35b726123fe5a4c04991,PennController,40,0,demo,NULL,Html,bg_form,religion,unchecked,1771505977610,checkbox
1771505979,7bc5e622ba9b35b726123fe5a4c04991,PennController,40,0,demo,NULL,Html,bg_form,religion,checked,1771505977610,checkbox
1771505979,7bc5e622ba9b35b726123fe5a4c04991,PennController,40,0,demo,NULL,Html,bg_form,religion,unchecked,1771505977610,checkbox
1771505979,7bc5e622ba9b35b726123fe5a4c04991,PennController,40,0,demo,NULL,Html,bg_form,lang4,unchecked,1771505977610,checkbox
1771505979,7bc5e622ba9b35b726123fe5a4c04991,PennController,40,0,demo,NULL,Html,bg_form,rightwrong,yes,1771505977610,radio button
1771505979,7bc5e622ba9b35b726123fe5a4c04991,PennController,40,0,demo,NULL,Html,bg_form,gender,man,1771505977610,radio button
1771505979,7bc5e622ba9b35b726123fe5a4c04991,PennController,40,0,demo,NULL,PennController,3,_Trial_,End,1771505977610,NULL
#
# Results on Thu, 19 Feb 2026 12:59:55 GMT
# USER AGENT: Mozilla/5.0 (Windows NT 10.0; Win64; x64; rv:147.0) Gecko/20100101 Firefox/147.0
# Design number was non-random = 0
#
# Columns below this comment are as follows:
# 1. Results reception time.
# 2. MD5 hash of participant's IP address.
# 3. Controller name.
# 4. Order number of item.
# 5. Inner element number.
# 6. Label.
# 7. Latin Square Group.
# 8. PennElementType.
# 9. PennElementName.
# 10. Parameter.
# 11. Value.
# 12. EventTime.
# 13. Comments.
1771505995,490bf4692fddb8b823bfde131bfdb219,PennController,0,0,welcome,NULL,PennController,0,_Trial_,Start,1771505185580,NULL
1771505995,490bf4692fddb8b823bfde131bfdb219,PennController,0,0,welcome,NULL,PennController,0,_Header_,Start,1771505185580,NULL
1771505995,490bf4692fddb8b823bfde131bfdb219,PennController,0,0,welcome,NULL,PennController,0,_Header_,End,1771505186739,NULL
1771505995,490bf4692fddb8b823bfde131bfdb219,PennController,0,0,welcome,NULL,PennController,0,_Trial_,End,1771505202290,NULL
1771505995,490bf4692fddb8b823bfde131bfdb219,PennController,39,0,consent,NULL,PennController,2,_Trial_,Start,1771505202292,NULL
1771505995,490bf4692fddb8b823bfde131bfdb219,PennController,39,0,consent,NULL,PennController,2,_Header_,Start,1771505202292,NULL
1771505995,490bf4692fddb8b823bfde131bfdb219,PennController,39,0,consent,NULL,PennController,2,_Header_,End,1771505202551,NULL
1771505995,490bf4692fddb8b823bfde131bfdb219,PennController,39,0,consent,NULL,PennController,2,_Trial_,End,1771505210578,NULL
1771505995,490bf4692fddb8b823bfde131bfdb219,PennController,41,0,instructions1,NULL,PennController,4,_Trial_,Start,1771505210579,NULL
1771505995,490bf4692fddb8b823bfde131bfdb219,PennController,41,0,instructions1,NULL,PennController,4,_Header_,Start,1771505210579,NULL
1771505995,490bf4692fddb8b823bfde131bfdb219,PennController,41,0,instructions1,NULL,PennController,4,_Header_,End,1771505210837,NULL
1771505995,490bf4692fddb8b823bfde131bfdb219,PennController,41,0,instructions1,NULL,PennController,4,_Trial_,End,1771505224582,NULL
# 13. TrialType.
# 14. Number.
# 15. Valence.
# 16. Group.
# 17. Comments.
1771505995,490bf4692fddb8b823bfde131bfdb219,PennController,4,0,practice,NULL,PennController,7,_Trial_,Start,1771505224586,Practice,2,none,none,NULL
1771505995,490bf4692fddb8b823bfde131bfdb219,PennController,4,0,practice,NULL,PennController,7,_Header_,Start,1771505224586,Practice,2,none,none,NULL
1771505995,490bf4692fddb8b823bfde131bfdb219,PennController,4,0,practice,NULL,PennController,7,_Header_,End,1771505224836,Practice,2,none,none,NULL
1771505995,490bf4692fddb8b823bfde131bfdb219,PennController,4,0,practice,NULL,Scale,R1B,Choice,Bad,1771505236279,Practice,2,none,none,NULL
1771505995,490bf4692fddb8b823bfde131bfdb219,PennController,4,0,practice,NULL,Scale,R2,Choice,Maybe no correct answer,1771505241825,Practice,2,none,none,NULL
1771505995,490bf4692fddb8b823bfde131bfdb219,PennController,4,0,practice,NULL,Scale,R3,Choice,Almost everyone would agree with me,1771505247139,Practice,2,none,none,NULL
1771505995,490bf4692fddb8b823bfde131bfdb219,PennController,4,0,practice,NULL,Scale,R4,Choice,Very easy,1771505249240,Practice,2,none,none,NULL
1771505995,490bf4692fddb8b823bfde131bfdb219,PennController,4,0,practice,NULL,PennController,7,_Trial_,End,1771505251928,Practice,2,none,none,NULL
1771505995,490bf4692fddb8b823bfde131bfdb219,PennController,3,0,practice,NULL,PennController,6,_Trial_,Start,1771505251934,Practice,1,none,none,NULL
1771505995,490bf4692fddb8b823bfde131bfdb219,PennController,3,0,practice,NULL,PennController,6,_Header_,Start,1771505251934,Practice,1,none,none,NULL
1771505995,490bf4692fddb8b823bfde131bfdb219,PennController,3,0,practice,NULL,PennController,6,_Header_,End,1771505252195,Practice,1,none,none,NULL
1771505995,490bf4692fddb8b823bfde131bfdb219,PennController,3,0,practice,NULL,Scale,R1B,Choice,Bad,1771505259068,Practice,1,none,none,NULL
1771505995,490bf4692fddb8b823bfde131bfdb219,PennController,3,0,practice,NULL,Scale,R2,Choice,Probably no correct answer,1771505264586,Practice,1,none,none,NULL
1771505995,490bf4692fddb8b823bfde131bfdb219,PennController,3,0,practice,NULL,Scale,R3,Choice,Most of them would agree with me,1771505267141,Practice,1,none,none,NULL
1771505995,490bf4692fddb8b823bfde131bfdb219,PennController,3,0,practice,NULL,Scale,R4,Choice,Very easy,1771505270282,Practice,1,none,none,NULL
1771505995,490bf4692fddb8b823bfde131bfdb219,PennController,3,0,practice,NULL,PennController,6,_Trial_,End,1771505274639,Practice,1,none,none,NULL
# 13. Phase.
# 14. TrialType.
# 15. Number.
# 16. Valence.
# 17. Group.
# 18. Comments.
1771505995,490bf4692fddb8b823bfde131bfdb219,PennController,13,0,test_phase1,NULL,PennController,16,_Trial_,Start,1771505274641,1,test,7,Neg,B,NULL
1771505995,490bf4692fddb8b823bfde131bfdb219,PennController,13,0,test_phase1,NULL,PennController,16,_Header_,Start,1771505274641,1,test,7,Neg,B,NULL
1771505995,490bf4692fddb8b823bfde131bfdb219,PennController,13,0,test_phase1,NULL,PennController,16,_Header_,End,1771505274897,1,test,7,Neg,B,NULL
1771505995,490bf4692fddb8b823bfde131bfdb219,PennController,13,0,test_phase1,NULL,Scale,R1B,Choice,Good,1771505295910,1,test,7,Neg,B,NULL
1771505995,490bf4692fddb8b823bfde131bfdb219,PennController,13,0,test_phase1,NULL,Scale,R2,Choice,Probably there is a correct answer,1771505299828,1,test,7,Neg,B,NULL
1771505995,490bf4692fddb8b823bfde131bfdb219,PennController,13,0,test_phase1,NULL,Scale,R3,Choice,Most of them would agree with me,1771505303241,1,test,7,Neg,B,NULL
1771505995,490bf4692fddb8b823bfde131bfdb219,PennController,13,0,test_phase1,NULL,Scale,R4,Choice,Somewhat easy,1771505305918,1,test,7,Neg,B,NULL
1771505995,490bf4692fddb8b823bfde131bfdb219,PennController,13,0,test_phase1,NULL,PennController,16,_Trial_,End,1771505310367,1,test,7,Neg,B,NULL
1771505995,490bf4692fddb8b823bfde131bfdb219,PennController,11,0,test_phase1,NULL,PennController,14,_Trial_,Start,1771505310369,1,test,3,Neg,B,NULL
1771505995,490bf4692fddb8b823bfde131bfdb219,PennController,11,0,test_phase1,NULL,PennController,14,_Header_,Start,1771505310369,1,test,3,Neg,B,NULL
1771505995,490bf4692fddb8b823bfde131bfdb219,PennController,11,0,test_phase1,NULL,PennController,14,_Header_,End,1771505310628,1,test,3,Neg,B,NULL
1771505995,490bf4692fddb8b823bfde131bfdb219,PennController,11,0,test_phase1,NULL,Scale,R1B,Choice,Very bad,1771505323657,1,test,3,Neg,B,NULL
1771505995,490bf4692fddb8b823bfde131bfdb219,PennController,11,0,test_phase1,NULL,Scale,R2,Choice,Definitely there is a correct answer,1771505334914,1,test,3,Neg,B,NULL
1771505995,490bf4692fddb8b823bfde131bfdb219,PennController,11,0,test_phase1,NULL,Scale,R3,Choice,Almost everyone would agree with me,1771505337013,1,test,3,Neg,B,NULL
